timestamp,motor_commanded_torque,motor_encoder_torque,motor_encoder_torque_target,motor_encoder_angle,motor_encoder_velocity,imu_dt,imu_dthetax,imu_dthetay,imu_dthetaz,imu_dvelx,imu_dvely,imu_dvelz,imu_ang_velx,imu_ang_vely,imu_ang_velz,imu_lin_accelx,imu_lin_accely,imu_lin_accelz,ins_theta,ins_phi,ins_psi
1,0,0,0,0,0,0,0,0,0,0,0,0,0,0,0,0,0,0,0.235797,1.36416,-3.01216
100,0,-0.943035,-0.832974,-0.674065,-0.00104224,0.014,-6.48426e-06,-2.81944e-05,7.20509e-06,0.134105,-0.00664417,-0.0272944,-0.000463161,-0.00201388,0.000514649,9.57894,-0.474583,-1.9496,0.235609,1.36415,-3.01236
200,0,-0.943035,-0.833428,-0.674063,0.002616,0.014,2.11192e-05,-1.76368e-05,1.08077e-05,0.133959,-0.00660791,-0.0271312,0.00150851,-0.00125977,0.000771978,9.56849,-0.471994,-1.93794,0.235716,1.36417,-3.01227
300,0,-0.943035,-0.833732,-0.674069,-0.0016122,0.014,5.00574e-06,-4.19917e-05,2.38668e-05,0.134023,-0.00659281,-0.0272419,0.000357553,-0.00299941,0.00170477,9.57308,-0.470915,-1.94585,0.235943,1.36417,-3.01208
400,0,-0.943035,-0.833715,-0.674059,0.00169214,0.014,1.27256e-06,-1.76785e-05,1.95853e-05,0.133986,-0.00678491,-0.0270338,9.08973e-05,-0.00126275,0.00139895,9.5704,-0.484636,-1.93099,0.235916,1.36421,-3.01212
500,0,-0.943035,-0.833184,-0.67406,0.00322324,0.014,-9.54813e-06,-1.62438e-05,1.21603e-05,0.133962,-0.00679903,-0.0270269,-0.000682009,-0.00116027,0.000868594,9.56874,-0.485645,-1.93049,0.235789,1.36422,-3.01225
600,0,-0.943035,-0.833893,-0.674071,-0.00129181,0.014,8.0459e-07,-2.5289e-05,8.36981e-06,0.133936,-0.00659191,-0.0270386,5.74707e-05,-0.00180636,0.000597843,9.56687,-0.470851,-1.93133,0.235773,1.36423,-3.01228
700,0,-0.943035,-0.834306,-0.674073,-0.00172021,0.014,-2.59164e-05,-2.55352e-05,9.55658e-06,0.134053,-0.00652836,-0.027138,-0.00185117,-0.00182394,0.000682613,9.57519,-0.466312,-1.93843,0.235637,1.36421,-3.01242
800,0,-0.943035,-0.832961,-0.67407,-0.00297935,0.014,4.0139e-06,-1.86881e-05,9.1574e-06,0.134152,-0.00665991,-0.0272306,0.000286707,-0.00133487,0.0006541,9.58225,-0.475708,-1.94504,0.235506,1.36422,-3.01258
900,0,-0.943035,-0.833611,-0.674063,0.00257134,0.014,-4.36426e-06,-1.8403e-05,-4.84503e-06,0.133968,-0.00668544,-0.0272834,-0.000311733,-0.0013145,-0.000346073,9.56911,-0.477531,-1.94882,0.235257,1.36422,-3.01279
1000,0,-0.943035,-0.833093,-0.674072,-0.00263289,0.014,-1.07867e-05,-2.25488e-05,1.23104e-05,0.134,-0.00652902,-0.0272092,-0.00077048,-0.00161063,0.000879312,9.57143,-0.466359,-1.94351,0.235425,1.36421,-3.01263
1100,0,-0.943035,-0.833684,-0.674073,-0.00122845,0.014,-9.26824e-06,-3.20911e-05,1.88506e-05,0.134124,-0.00651144,-0.0270684,-0.000662017,-0.00229222,0.00134647,9.58029,-0.465102,-1.93346,0.235414,1.36419,-3.01264
1200,0,-0.943035,-0.833109,-0.674067,-0.000781413,0.014,7.10784e-06,-2.70276e-05,1.42372e-05,0.134066,-0.00674503,-0.0271247,0.000507703,-0.00193054,0.00101695,9.57617,-0.481788,-1.93748,0.235348,1.36418,-3.01273
1300,0,-0.943035,-0.833128,-0.674057,0.00180022,0.014,-1.08182e-07,-1.21644e-05,1.87468e-05,0.133996,-0.00674912,-0.0271047,-7.72729e-06,-0.000868887,0.00133906,9.57112,-0.48208,-1.93605,0.235458,1.36421,-3.01262
1400,0,-0.943035,-0.832861,-0.67406,-0.000423771,0.014,-3.67253e-07,-2.78355e-05,6.82543e-06,0.134071,-0.00646856,-0.0271912,-2.62323e-05,-0.00198825,0.000487531,9.57653,-0.46204,-1.94223,0.235762,1.3642,-3.01234
1500,0,-0.943035,-0.833618,-0.674063,0.00197531,0.014,-1.48354e-05,-2.93472e-05,9.86458e-06,0.134077,-0.00645368,-0.027271,-0.00105967,-0.00209623,0.000704613,9.5769,-0.460977,-1.94793,0.235706,1.36421,-3.01239
1600,0,-0.943035,-0.833067,-0.674057,0.00585335,0.014,-1.11274e-05,-3.77037e-05,1.2755e-05,0.13411,-0.00660777,-0.027298,-0.000794811,-0.00269312,0.000911069,9.57932,-0.471983,-1.94985,0.235666,1.36424,-3.01242
1700,0,-0.943035,-0.833178,-0.674071,-0.00159723,0.014,-7.40788e-06,-2.38754e-05,8.20362e-06,0.133985,-0.00663477,-0.0272571,-0.000529134,-0.00170538,0.000585973,9.57038,-0.473912,-1.94693,0.235658,1.36423,-3.01243
1800,0,-0.943035,-0.833196,-0.674058,0.00532065,0.014,6.04232e-06,-1.57042e-05,5.0398e-06,0.134053,-0.00645309,-0.0271899,0.000431594,-0.00112173,0.000359986,9.57521,-0.460935,-1.94213,0.235856,1.36426,-3.01229
1900,0,-0.943035,-0.8327,-0.674067,-0.00122468,0.014,-1.26699e-05,-2.46664e-05,1.34355e-05,0.134106,-0.00650047,-0.0271069,-0.000904991,-0.00176189,0.000959678,9.579,-0.464319,-1.9362,0.235933,1.36427,-3.01224
2000,0,-0.943035,-0.832532,-0.674073,-0.000654702,0.014,-3.8082e-06,-3.20448e-05,1.23167e-05,0.13405,-0.00669687,-0.0271799,-0.000272015,-0.00228891,0.000879764,9.57502,-0.478348,-1.94142,0.235829,1.36431,-3.01238
2100,0,-0.943035,-0.833273,-0.674073,-0.00295693,0.014,-2.03996e-06,-3.20026e-05,4.33835e-06,0.134089,-0.00660166,-0.0270665,-0.000145711,-0.0022859,0.000309882,9.57778,-0.471547,-1.93332,0.235825,1.36429,-3.0124
2200,0,-0.943035,-0.833767,-0.674069,-0.00195855,0.014,5.24469e-06,-2.52336e-05,1.31759e-05,0.133988,-0.00648976,-0.0270485,0.000374621,-0.0018024,0.000941132,9.57054,-0.463554,-1.93203,0.236009,1.36433,-3.01223
2300,0,-0.943035,-0.833032,-0.67407,-0.00239813,0.014,-4.21879e-06,-3.30886e-05,1.60683e-05,0.133954,-0.00663494,-0.0269655,-0.000301342,-0.00236347,0.00114774,9.56818,-0.473924,-1.92611,0.236132,1.36434,-3.01212
2400,0,-0.943035,-0.832801,-0.674073,-0.00163071,0.014,-6.17138e-06,-2.29506e-05,1.23963e-05,0.134109,-0.00675957,-0.0270871,-0.000440813,-0.00163933,0.00088545,9.57922,-0.482826,-1.93479,0.236043,1.36435,-3.01222
2500,0,-0.943035,-0.833769,-0.674073,-0.00275202,0.014,-1.04834e-05,-3.29739e-05,-5.4161e-06,0.134086,-0.00653116,-0.026951,-0.000748814,-0.00235528,-0.000386864,9.57756,-0.466511,-1.92507,0.235989,1.36437,-3.01228
2600,0,-0.943035,-0.833107,-0.674058,0.0063675,0.014,-1.14106e-05,-1.56704e-05,-1.2145e-06,0.133963,-0.0067351,-0.0268659,-0.000815045,-0.00111931,-8.67497e-05,9.56878,-0.481079,-1.919,0.235896,1.36437,-3.01238
2700,0,-0.943035,-0.832908,-0.674071,-0.00120602,0.014,3.79597e-09,-3.12204e-05,1.39061e-05,0.134058,-0.00666446,-0.0268722,2.71141e-07,-0.00223003,0.00099329,9.57556,-0.476033,-1.91944,0.235916,1.36434,-3.01234
2802,0,-0.943035,-0.833125,-0.674072,-0.00160089,0.014,3.45206e-06,-2.65948e-05,1.44181e-05,0.134142,-0.00662659,-0.0271474,0.000246576,-0.00189963,0.00102986,9.58158,-0.473328,-1.9391,0.235863,1.36439,-3.01241
2900,0,-0.943035,-0.833046,-0.67407,-0.0032959,0.014,5.98718e-06,-2.85659e-05,1.39826e-05,0.134121,-0.00655478,-0.0270998,0.000427656,-0.00204042,0.000998755,9.58005,-0.468199,-1.9357,0.23584,1.3644,-3.01245
3000,0,-0.943035,-0.834266,-0.674072,-0.000114491,0.014,1.84292e-07,-1.51703e-05,1.45773e-05,0.134083,-0.0064382,-0.0271087,1.31637e-05,-0.0010836,0.00104123,9.57734,-0.459871,-1.93634,0.235903,1.36437,-3.01242
3101,0,-0.943035,-0.834262,-0.674071,-0.00223045,0.014,-5.7042e-06,-3.34928e-05,1.48884e-05,0.133994,-0.00660963,-0.0271802,-0.000407442,-0.00239234,0.00106346,9.57098,-0.472116,-1.94144,0.235883,1.36438,-3.01243
3201,0,-0.943035,-0.833081,-0.674055,0.00572677,0.014,-3.96391e-06,-4.19921e-05,3.07256e-07,0.133993,-0.0067599,-0.027167,-0.000283136,-0.00299943,2.19469e-05,9.57095,-0.48285,-1.9405,0.235777,1.36432,-3.01256
3300,0,-0.943035,-0.833181,-0.67407,-0.00202555,0.014,-1.30024e-06,-3.862e-05,1.32835e-05,0.133974,-0.00665768,-0.0272176,-9.28746e-05,-0.00275857,0.00094882,9.56956,-0.475549,-1.94411,0.23587,1.36432,-3.01247
3400,0,-0.943035,-0.834074,-0.674072,-0.00159341,0.014,5.43677e-06,-2.65034e-05,1.10134e-05,0.134033,-0.00666663,-0.0271978,0.000388341,-0.0018931,0.00078667,9.57378,-0.476188,-1.9427,0.23591,1.36426,-3.01244
3500,0,-0.943035,-0.833204,-0.67407,-0.00279295,0.014,7.77805e-06,-3.13284e-05,4.16724e-07,0.134032,-0.00662909,-0.0271433,0.000555575,-0.00223774,2.9766e-05,9.57374,-0.473506,-1.93881,0.235815,1.36427,-3.01255
3600,0,-0.943035,-0.833221,-0.674069,-0.000866977,0.014,-4.20526e-06,-2.08262e-05,1.18636e-05,0.134065,-0.0068062,-0.0273185,-0.000300375,-0.00148759,0.000847403,9.57606,-0.486157,-1.95132,0.235758,1.3643,-3.01259
3701,0,-0.943035,-0.833553,-0.674068,-0.00173497,0.014,2.58145e-06,-3.26116e-05,1.17661e-05,0.134133,-0.00643836,-0.0271757,0.000184389,-0.0023294,0.000840438,9.5809,-0.459883,-1.94112,0.235735,1.36426,-3.0126
3800,0,-0.943035,-0.833365,-0.674059,0.000291597,0.014,-7.00681e-06,-3.63197e-05,-5.12505e-06,0.134047,-0.00646124,-0.0271818,-0.000500487,-0.00259426,-0.000366075,9.57476,-0.461517,-1.94155,0.235697,1.36428,-3.01259
3900,0,-0.943035,-0.833559,-0.674067,0.000973331,0.014,6.89682e-06,-2.70028e-05,1.67895e-05,0.134032,-0.00661073,-0.0271562,0.00049263,-0.00192877,0.00119925,9.57368,-0.472195,-1.93973,0.235575,1.36427,-3.01275
4000,0,-0.943035,-0.833291,-0.674073,-0.00361995,0.014,4.74358e-07,-1.91509e-05,7.29176e-06,0.134027,-0.00685369,-0.0271955,3.38827e-05,-0.00136792,0.00052084,9.57337,-0.489549,-1.94253,0.235409,1.36429,-3.01293
4100,0,-0.943035,-0.83386,-0.674072,-0.000304435,0.014,8.71926e-06,-1.73045e-05,1.47219e-05,0.134087,-0.00659315,-0.0270988,0.000622804,-0.00123603,0.00105156,9.57765,-0.470939,-1.93563,0.235626,1.36425,-3.01273
4200,0,-0.943035,-0.833004,-0.674067,-0.00027835,0.014,4.01498e-06,-3.8353e-06,3.54898e-05,0.13403,-0.00663297,-0.0271181,0.000286784,-0.00027395,0.00253499,9.57354,-0.473784,-1.93701,0.235764,1.36424,-3.01258
4300,0,-0.943035,-0.832756,-0.674061,0.00470982,0.014,-4.17642e-07,-1.34014e-05,2.81314e-05,0.134011,-0.00676658,-0.0272042,-2.98316e-05,-0.000957242,0.00200938,9.57219,-0.483327,-1.94315,0.235782,1.36423,-3.01256
4400,0,-0.943035,-0.833477,-0.674057,0.00531332,0.014,-1.05975e-05,-1.07859e-05,9.18154e-06,0.134019,-0.00657605,-0.027108,-0.000756965,-0.000770424,0.000655824,9.57279,-0.469718,-1.93628,0.235691,1.36421,-3.01263
4500,0,-0.943035,-0.833116,-0.674073,-0.00192864,0.014,-1.33283e-05,-1.69822e-05,8.97873e-06,0.134097,-0.00660049,-0.0271,-0.000952022,-0.00121302,0.000641337,9.57834,-0.471463,-1.93571,0.23582,1.36421,-3.01247
4600,0,-0.943035,-0.833986,-0.674073,-0.00265879,0.014,-1.57335e-05,-2.69381e-05,1.89205e-05,0.134074,-0.00653177,-0.0272213,-0.00112382,-0.00192415,0.00135147,9.5767,-0.466555,-1.94438,0.235919,1.36421,-3.01235
4700,0,-0.943035,-0.832995,-0.674071,-0.00377637,0.014,-6.20585e-06,1.74053e-06,1.55409e-05,0.133968,-0.00682897,-0.0272999,-0.000443275,0.000124324,0.00111006,9.56916,-0.487784,-1.94999,0.235802,1.36425,-3.01242
4800,0,-0.943035,-0.83322,-0.674073,-0.00280407,0.014,-6.85797e-06,-8.08151e-06,2.88971e-05,0.13411,-0.00637908,-0.0272905,-0.000489855,-0.00057725,0.00206408,9.57928,-0.455649,-1.94932,0.23597,1.36425,-3.01222
4900,0,-0.943035,-0.833153,-0.674072,-3.24454e-05,0.014,8.10445e-06,-4.69848e-06,1.4122e-05,0.134206,-0.00634219,-0.0275024,0.000578889,-0.000335606,0.00100872,9.58614,-0.453013,-1.96446,0.236017,1.36432,-3.01222
5002,0,-0.943035,-0.832867,-0.674069,-0.0014853,0.014,1.08633e-05,-1.60428e-05,2.01879e-05,0.13411,-0.00634241,-0.0273717,0.00077595,-0.00114592,0.00144199,9.57927,-0.453029,-1.95512,0.235982,1.36429,-3.01225
5100,0,-0.943035,-0.832406,-0.674073,-0.0019286,0.014,7.8452e-06,-1.6565e-05,1.20205e-05,0.134013,-0.00651326,-0.0274315,0.000560372,-0.00118322,0.000858605,9.57235,-0.465233,-1.95939,0.235952,1.3643,-3.01227
5200,0,-0.943035,-0.832807,-0.674065,0.000243251,0.014,-1.49122e-05,-3.3678e-05,1.2168e-05,0.134032,-0.00673409,-0.0272707,-0.00106515,-0.00240557,0.000869145,9.57371,-0.481006,-1.94791,0.235985,1.3643,-3.01216
5300,0,-0.943035,-0.833697,-0.674062,-0.00081473,0.014,-1.33063e-06,-2.0037e-05,1.90799e-05,0.13416,-0.00671554,-0.0271263,-9.50449e-05,-0.00143121,0.00136285,9.58286,-0.479682,-1.93759,0.235876,1.36432,-3.01225
5400,0,-0.943035,-0.832795,-0.674071,-0.00373536,0.014,-1.89563e-06,-3.62662e-05,2.18614e-05,0.134102,-0.0065211,-0.0271,-0.000135402,-0.00259044,0.00156153,9.57875,-0.465793,-1.93572,0.235918,1.36428,-3.0122
5500,0,-0.943035,-0.833685,-0.67407,-0.00372418,0.014,2.25533e-06,-2.92681e-05,1.73827e-05,0.134179,-0.00647527,-0.0271838,0.000161095,-0.00209058,0.00124162,9.58419,-0.462519,-1.9417,0.235873,1.36425,-3.01225
5600,0,-0.943035,-0.832733,-0.674073,-0.000505517,0.014,5.41312e-06,-2.11479e-05,8.56485e-06,0.134155,-0.00651332,-0.027058,0.000386652,-0.00151057,0.000611775,9.58252,-0.465237,-1.93271,0.235872,1.36426,-3.01225
5700,0,-0.943035,-0.83287,-0.674069,-0.00353045,0.014,-1.34649e-05,-1.26343e-05,1.2186e-05,0.134069,-0.00658969,-0.0270808,-0.000961777,-0.000902451,0.000870427,9.57638,-0.470692,-1.93434,0.236044,1.36431,-3.01204
5800,0,-0.943035,-0.833062,-0.674049,0.00737348,0.014,2.01948e-06,-3.56026e-05,2.21104e-05,0.134085,-0.00661396,-0.0271117,0.000144249,-0.00254304,0.00157931,9.57751,-0.472426,-1.93655,0.23608,1.36429,-3.01203
5900,0,-0.943035,-0.834111,-0.674073,-0.00208503,0.014,1.66578e-05,-2.35502e-05,1.01828e-05,0.134081,-0.00652647,-0.0271621,0.00118984,-0.00168216,0.000727343,9.57722,-0.466177,-1.94015,0.236156,1.36429,-3.012
6000,0,-0.943035,-0.833117,-0.674068,-0.00486036,0.014,1.41762e-05,-1.71158e-05,2.00945e-05,0.134115,-0.00659851,-0.0271443,0.00101258,-0.00122256,0.00143532,9.57967,-0.471322,-1.93888,0.236178,1.3643,-3.01197
6100,0,-0.943035,-0.833692,-0.674061,0.00158812,0.014,-2.50566e-06,-2.42485e-05,1.02877e-05,0.134154,-0.0066257,-0.0272305,-0.000178976,-0.00173203,0.000734838,9.58242,-0.473264,-1.94503,0.236181,1.36434,-3.01197
6201,0,-0.943035,-0.833096,-0.67407,-0.00244636,0.014,-5.08128e-06,-2.1927e-05,1.33558e-05,0.134073,-0.00659344,-0.0273325,-0.000362948,-0.00156622,0.000953986,9.57666,-0.47096,-1.95232,0.236004,1.36438,-3.01212
6300,0,-0.943035,-0.833134,-0.674069,-0.00174973,0.014,7.51297e-06,-1.31108e-05,9.82449e-06,0.134062,-0.00646403,-0.0272943,0.000536641,-0.000936484,0.000701749,9.57585,-0.461716,-1.94959,0.236101,1.36439,-3.01203
6401,0,-0.943035,-0.833302,-0.674072,-0.00152621,0.014,2.36785e-06,-2.10802e-05,2.11487e-05,0.134029,-0.00660195,-0.0273248,0.000169132,-0.00150573,0.00151062,9.57352,-0.471568,-1.95177,0.236077,1.36439,-3.01205
6500,0,-0.943035,-0.833505,-0.674073,-0.00125053,0.014,2.40596e-07,-1.53323e-05,1.52349e-05,0.134072,-0.006512,-0.0273959,1.71854e-05,-0.00109516,0.0010882,9.57657,-0.465143,-1.95685,0.23597,1.36442,-3.01215
6600,0,-0.943035,-0.832911,-0.674061,0.00366686,0.014,-1.19194e-06,-8.27404e-06,1.24855e-05,0.134056,-0.0064459,-0.0275328,-8.51388e-05,-0.000591003,0.00089182,9.57545,-0.460421,-1.96663,0.235881,1.36442,-3.01223
6700,0,-0.943035,-0.835002,-0.674073,-0.00195832,0.014,-5.5598e-06,-1.36648e-05,1.12895e-05,0.134042,-0.00651917,-0.027477,-0.000397128,-0.000976059,0.000806396,9.57444,-0.465655,-1.96265,0.235885,1.36441,-3.01222
6800,0,-0.943035,-0.833453,-0.67406,0.00481799,0.014,-9.5076e-06,-2.63431e-05,2.06871e-05,0.134089,-0.00633349,-0.0274025,-0.000679114,-0.00188165,0.00147765,9.5778,-0.452392,-1.95732,0.235969,1.36441,-3.0121
6900,0,-0.943035,-0.833107,-0.674071,-0.000736417,0.014,-1.27699e-05,-2.62882e-05,3.02658e-05,0.134074,-0.00661862,-0.0273297,-0.000912137,-0.00187773,0.00216184,9.57673,-0.472759,-1.95212,0.235911,1.3644,-3.01215
7000,0,-0.943035,-0.833037,-0.674036,0.0156847,0.014,-3.6495e-06,-1.63805e-06,7.73123e-06,0.134037,-0.00661998,-0.0273926,-0.000260678,-0.000117003,0.000552231,9.57408,-0.472856,-1.95661,0.235975,1.36444,-3.01206
7100,0,-0.943035,-0.832775,-0.674067,-0.00190614,0.014,-8.52625e-06,-1.98858e-05,1.23307e-05,0.134118,-0.00630645,-0.0271417,-0.000609018,-0.00142041,0.000880762,9.57984,-0.450461,-1.93869,0.236014,1.36441,-3.01203
7200,0,-0.943035,-0.833571,-0.674056,0.00531347,0.014,1.7204e-05,-1.83189e-05,2.77184e-05,0.134094,-0.00676318,-0.0270428,0.00122886,-0.00130849,0.00197988,9.57814,-0.483085,-1.93163,0.236091,1.36442,-3.01197
7300,0,-0.943035,-0.832874,-0.674072,-0.0013548,0.014,-8.39108e-07,-2.09827e-05,9.87641e-06,0.134046,-0.00705171,-0.0271197,-5.99363e-05,-0.00149876,0.000705458,9.57474,-0.503694,-1.93712,0.236057,1.36443,-3.012
7400,0,-0.943035,-0.833193,-0.674061,0.00446039,0.014,3.3429e-06,3.86978e-07,7.00083e-06,0.134121,-0.00663122,-0.0269267,0.000238778,2.76413e-05,0.000500059,9.58008,-0.473659,-1.92334,0.236025,1.36444,-3.01202
7500,0,-0.943035,-0.833273,-0.674059,0.00259775,0.014,-5.70729e-07,-1.88236e-05,1.23253e-05,0.134006,-0.00637537,-0.0267445,-4.07664e-05,-0.00134454,0.000880381,9.57185,-0.455384,-1.91032,0.236123,1.36441,-3.01192
7600,0,-0.943035,-0.834671,-0.674068,-0.00236433,0.014,1.96002e-06,-2.79267e-05,2.49553e-05,0.134039,-0.00683249,-0.0269815,0.000140002,-0.00199477,0.00178252,9.57421,-0.488035,-1.92725,0.23607,1.36443,-3.01195
7700,0,-0.943035,-0.832981,-0.674064,-0.000494235,0.014,-7.21093e-06,-3.27813e-05,-4.8018e-06,0.134076,-0.00685066,-0.0271403,-0.000515066,-0.00234152,-0.000342986,9.57686,-0.489333,-1.9386,0.235868,1.36442,-3.01213
7800,0,-0.943035,-0.833434,-0.674058,0.00503038,0.014,-6.21359e-06,-1.00594e-05,6.98985e-06,0.134024,-0.00640838,-0.0270803,-0.000443828,-0.000718529,0.000499275,9.57317,-0.457742,-1.93431,0.23583,1.36441,-3.01217
7900,0,-0.943035,-0.833974,-0.67406,0.00430396,0.014,-5.82402e-06,-2.30127e-05,1.98053e-05,0.134023,-0.00651862,-0.0271897,-0.000416001,-0.00164377,0.00141466,9.57308,-0.465615,-1.94212,0.23587,1.36438,-3.01211
8000,0,-0.943035,-0.832982,-0.674073,-0.00259527,0.014,-7.69073e-06,-2.98417e-05,1.0932e-05,0.134041,-0.00680783,-0.027358,-0.000549338,-0.00213155,0.000780858,9.57433,-0.486273,-1.95414,0.235879,1.36439,-3.01214
8100,0,-0.943035,-0.833404,-0.674069,-0.000147753,0.014,-1.18939e-06,-2.40038e-05,1.05557e-05,0.134064,-0.00659679,-0.0272006,-8.49566e-05,-0.00171455,0.000753978,9.57599,-0.471199,-1.9429,0.235929,1.36441,-3.0121
8200,0,-0.943035,-0.833653,-0.674073,-0.0017906,0.014,7.82069e-06,-2.3823e-05,1.06886e-05,0.133982,-0.00636852,-0.0270645,0.00055862,-0.00170164,0.000763469,9.57016,-0.454895,-1.93318,0.235995,1.36439,-3.01201
8300,0,-0.943035,-0.833183,-0.674069,-0.000974757,0.014,5.56337e-06,-2.52839e-05,3.70123e-06,0.134102,-0.00660448,-0.0272112,0.000397384,-0.001806,0.000264374,9.57872,-0.471748,-1.94366,0.235883,1.36438,-3.01213
8400,0,-0.943035,-0.833419,-0.674066,-0.000956126,0.014,-2.93076e-06,-2.65808e-05,9.14026e-06,0.134114,-0.00676639,-0.027392,-0.00020934,-0.00189863,0.000652876,9.57959,-0.483314,-1.95657,0.2357,1.36442,-3.01233
8500,0,-0.943035,-0.834203,-0.674073,-0.000948673,0.014,6.19764e-07,-3.67442e-05,-3.83048e-06,0.133975,-0.00651245,-0.0273426,4.42688e-05,-0.00262458,-0.000273605,9.56961,-0.465175,-1.95304,0.235739,1.36438,-3.01232
8600,0,-0.943035,-0.83314,-0.674072,-0.00154099,0.014,-8.0988e-06,-2.0392e-05,1.21851e-05,0.134045,-0.00633625,-0.0274022,-0.000578486,-0.00145657,0.000870366,9.57464,-0.452589,-1.9573,0.235938,1.36441,-3.01213
8700,0,-0.943035,-0.833609,-0.674071,-0.00374636,0.014,3.62059e-06,-2.71879e-05,5.26401e-06,0.134056,-0.00658367,-0.0274194,0.000258614,-0.00194199,0.000376001,9.57543,-0.470262,-1.95853,0.235778,1.36443,-3.01228
8800,0,-0.943035,-0.832749,-0.674073,-0.00416731,0.014,-4.50616e-06,-2.41319e-05,1.04918e-05,0.134125,-0.00669879,-0.0272655,-0.000321869,-0.00172371,0.000749417,9.58034,-0.478485,-1.94753,0.235726,1.36447,-3.01231
8900,0,-0.943035,-0.83273,-0.67407,-0.00159312,0.014,-6.77478e-06,-2.05912e-05,-4.17777e-06,0.134048,-0.00661776,-0.0272565,-0.000483912,-0.0014708,-0.000298412,9.57483,-0.472697,-1.94689,0.235728,1.36447,-3.01231
9000,0,-0.943035,-0.834223,-0.674069,-0.00114981,0.014,-1.24752e-06,-1.79819e-05,1.76389e-05,0.134007,-0.00632474,-0.0273194,-8.91087e-05,-0.00128442,0.00125992,9.57193,-0.451767,-1.95139,0.235959,1.36445,-3.01206
9100,0,-0.943035,-0.833242,-0.674072,-0.00229719,0.014,-3.70564e-06,-1.94384e-05,2.03348e-05,0.1341,-0.0065054,-0.0273693,-0.000264689,-0.00138845,0.00145248,9.57857,-0.464672,-1.95495,0.235874,1.36446,-3.01215
9200,0,-0.943035,-0.83312,-0.674073,-0.000482968,0.014,-9.9745e-06,-1.8917e-05,1.04002e-05,0.134082,-0.00675103,-0.0275591,-0.000712464,-0.00135122,0.000742874,9.57729,-0.482216,-1.96851,0.235776,1.36446,-3.01227
9300,0,-0.943035,-0.834661,-0.674072,-0.00243874,0.014,5.63961e-06,-1.87842e-05,8.69973e-06,0.134013,-0.00642027,-0.027567,0.000402829,-0.00134173,0.000621409,9.57238,-0.458591,-1.96907,0.235764,1.36444,-3.0123
9400,0,-0.943035,-0.833612,-0.674066,0.000474441,0.014,-1.29238e-05,-2.22872e-05,1.94079e-05,0.133964,-0.00631685,-0.0274095,-0.000923132,-0.00159194,0.00138628,9.56885,-0.451203,-1.95782,0.235807,1.36441,-3.01222
9500,0,-0.943035,-0.833463,-0.674072,-0.00393258,0.014,-1.74137e-05,-3.34781e-05,2.46284e-05,0.134048,-0.00644364,-0.0274668,-0.00124383,-0.00239129,0.00175917,9.57485,-0.46026,-1.96192,0.235935,1.36442,-3.01209
9600,0,-0.943035,-0.833182,-0.674073,-0.000505303,0.014,-1.12465e-05,-2.74565e-05,8.81998e-06,0.134141,-0.00655727,-0.0275438,-0.000803319,-0.00196118,0.000629999,9.58153,-0.468376,-1.96741,0.235868,1.3644,-3.01212
9700,0,-0.943035,-0.832993,-0.674072,-0.00316516,0.014,9.7029e-06,-2.35366e-05,-2.55704e-06,0.134069,-0.00658793,-0.0272652,0.000693064,-0.00168118,-0.000182646,9.57635,-0.470566,-1.94751,0.235841,1.36439,-3.01218
9800,0,-0.943035,-0.832885,-0.674045,0.00722468,0.014,2.81468e-06,-6.76177e-06,1.31618e-05,0.133974,-0.00661831,-0.0273181,0.000201048,-0.000482984,0.00094013,9.56958,-0.472736,-1.95129,0.235859,1.36441,-3.01211
9900,0,-0.943035,-0.833834,-0.674057,0.00702352,0.014,-1.2832e-05,-2.90646e-05,1.49799e-05,0.134025,-0.00649484,-0.0273831,-0.000916575,-0.00207605,0.00106999,9.57324,-0.463917,-1.95594,0.235832,1.36442,-3.01211
10000,0,-0.943035,-0.833599,-0.674072,-0.00112369,0.014,2.56414e-06,-1.73325e-05,2.427e-05,0.134107,-0.00647491,-0.0274011,0.000183153,-0.00123803,0.00173357,9.57905,-0.462494,-1.95722,0.235939,1.36443,-3.01203
10100,0,-0.943035,-0.833247,-0.674063,0.00313805,0.014,-1.21758e-05,-2.20895e-05,2.12338e-05,0.134076,-0.00657522,-0.0275199,-0.000869699,-0.00157782,0.0015167,9.57687,-0.469658,-1.96571,0.235708,1.36444,-3.01224
10200,0,-0.943035,-0.833089,-0.674048,0.0100745,0.014,-1.25831e-05,-2.5958e-05,1.06232e-05,0.133971,-0.00645873,-0.0276642,-0.000898793,-0.00185414,0.000758801,9.56932,-0.461338,-1.97602,0.235699,1.36442,-3.01224
10300,0,-0.943035,-0.833905,-0.674073,-0.00154464,0.014,5.73781e-06,-1.76409e-05,6.28756e-06,0.133975,-0.00644816,-0.0275214,0.000409843,-0.00126006,0.000449112,9.56964,-0.460583,-1.96581,0.235717,1.3644,-3.0122
10400,0,-0.943035,-0.832828,-0.674071,-0.00168247,0.014,6.10709e-07,-2.19782e-05,1.78367e-05,0.133946,-0.00660553,-0.0275753,4.3622e-05,-0.00156987,0.00127405,9.56756,-0.471823,-1.96966,0.235852,1.36444,-3.01209
10500,0,-0.943035,-0.833224,-0.674066,-0.000888978,0.014,-2.27525e-05,-3.71803e-05,1.74574e-05,0.134082,-0.006608,-0.0277187,-0.00162518,-0.00265573,0.00124696,9.57726,-0.472,-1.97991,0.2359,1.36444,-3.01203
10600,0,-0.943035,-0.833321,-0.674068,-0.00180912,0.014,-3.58737e-06,-3.01394e-05,1.69434e-05,0.133917,-0.00656379,-0.0276811,-0.000256241,-0.00215281,0.00121024,9.5655,-0.468842,-1.97722,0.235947,1.36444,-3.01199
10700,0,-0.943035,-0.83327,-0.674073,-0.0012317,0.014,-5.21582e-06,-4.07191e-05,2.30891e-05,0.134064,-0.00639352,-0.0276075,-0.000372558,-0.00290851,0.00164922,9.57599,-0.45668,-1.97196,0.23594,1.36441,-3.01198
10800,0,-0.943035,-0.834669,-0.674071,-0.00132483,0.014,-1.61689e-05,-2.96322e-05,1.19385e-05,0.134113,-0.00652924,-0.0273894,-0.00115492,-0.00211658,0.00085275,9.57951,-0.466375,-1.95638,0.235943,1.36443,-3.01197
10900,0,-0.943035,-0.833203,-0.674072,-0.000963473,0.014,2.17852e-05,-2.09305e-05,5.51285e-06,0.13417,-0.00627173,-0.0273396,0.00155609,-0.00149504,0.000393775,9.58355,-0.44798,-1.95283,0.235884,1.36446,-3.01206
11000,0,-0.943035,-0.833113,-0.674073,-0.00370901,0.014,6.55303e-06,-2.33012e-05,4.28506e-06,0.134093,-0.00639008,-0.0273547,0.000468074,-0.00166437,0.000306076,9.57804,-0.456434,-1.95391,0.235922,1.36445,-3.01199
11100,0,-0.943035,-0.833161,-0.674072,-0.00116836,0.014,5.9247e-06,-4.68076e-05,2.00873e-06,0.134141,-0.00626777,-0.0274645,0.000423193,-0.0033434,0.000143481,9.58148,-0.447698,-1.96175,0.23598,1.36445,-3.01191
11200,0,-0.943035,-0.834529,-0.674067,0.000809777,0.014,-3.34811e-06,-2.41741e-05,1.71259e-05,0.134053,-0.00650586,-0.0276422,-0.000239151,-0.00172672,0.00122328,9.57523,-0.464704,-1.97444,0.235916,1.36446,-3.01196
11300,0,-0.943035,-0.833747,-0.674073,-0.0024126,0.014,2.74192e-05,-2.17418e-05,9.62957e-06,0.134094,-0.00617606,-0.0277717,0.00195851,-0.00155299,0.000687826,9.57816,-0.441147,-1.9837,0.235984,1.36446,-3.01192
11400,0,-0.943035,-0.833878,-0.674068,0.000999773,0.014,6.83266e-06,-3.2876e-05,7.89028e-06,0.134106,-0.00591271,-0.027556,0.000488047,-0.00234828,0.000563591,9.57898,-0.422336,-1.96829,0.236021,1.36445,-3.01187
11500,0,-0.943035,-0.832861,-0.674061,0.00267616,0.014,-4.09379e-06,-1.29373e-05,4.50941e-06,0.134079,-0.00619009,-0.0274784,-0.000292413,-0.000924096,0.000322101,9.57707,-0.442149,-1.96274,0.235963,1.36446,-3.01193
11600,0,-0.943035,-0.833065,-0.674064,0.00119723,0.014,-9.80416e-07,-2.24777e-05,1.21468e-05,0.133879,-0.00696637,-0.0274876,-7.00297e-05,-0.00160555,0.000867629,9.56281,-0.497598,-1.9634,0.235848,1.36447,-3.01203
11700,0,-0.943035,-0.832945,-0.674061,0.00162564,0.014,-9.03949e-06,-3.19034e-05,1.91196e-05,0.133995,-0.00667681,-0.0275156,-0.000645678,-0.00227881,0.00136568,9.5711,-0.476915,-1.9654,0.235767,1.36448,-3.01207
11800,0,-0.943035,-0.833208,-0.674059,0.00127175,0.014,-9.74253e-06,-1.89847e-05,9.6002e-06,0.134114,-0.00637897,-0.0276757,-0.000695895,-0.00135605,0.000685728,9.57957,-0.45564,-1.97684,0.235819,1.3645,-3.01203
11900,0,-0.943035,-0.833278,-0.674072,-0.00217414,0.014,-1.94487e-06,-3.46949e-06,1.74123e-05,0.134048,-0.00637766,-0.0273892,-0.000138919,-0.000247821,0.00124374,9.57487,-0.455547,-1.95637,0.235857,1.36447,-3.01201
12000,0,-0.943035,-0.835063,-0.674072,-0.0045397,0.014,-2.0069e-05,-1.48515e-05,1.43839e-05,0.133907,-0.0069713,-0.0272764,-0.0014335,-0.00106082,0.00102742,9.5648,-0.49795,-1.94832,0.235889,1.36447,-3.01196
12100,0,-0.943035,-0.832366,-0.674073,-0.00281116,0.014,-1.27153e-05,-8.4901e-06,1.56694e-05,0.134062,-0.00712937,-0.0270744,-0.000908234,-0.000606435,0.00111924,9.57587,-0.509241,-1.93388,0.235747,1.36448,-3.01211
12200,0,-0.943035,-0.833191,-0.674071,-0.00157063,0.014,-3.32538e-05,-5.65718e-06,4.2482e-06,0.133958,-0.00694753,-0.0269861,-0.00237527,-0.000404084,0.000303443,9.56842,-0.496252,-1.92758,0.23566,1.36446,-3.01217
12300,0,-0.943035,-0.832852,-0.674065,0.00211369,0.014,-1.86608e-06,-1.9441e-06,7.37341e-06,0.133987,-0.00673731,-0.0271464,-0.000133292,-0.000138864,0.000526672,9.57052,-0.481237,-1.93903,0.235748,1.36448,-3.01211
12400,0,-0.943035,-0.833144,-0.674072,-0.00398088,0.014,-1.39339e-05,-1.79089e-05,2.93837e-05,0.133971,-0.00661873,-0.0269774,-0.00099528,-0.00127921,0.00209883,9.56936,-0.472766,-1.92696,0.235861,1.36447,-3.01202
12500,0,-0.943035,-0.833904,-0.67405,0.00809652,0.014,-1.25787e-05,-3.0385e-06,1.77036e-05,0.134196,-0.00664559,-0.0271436,-0.000898477,-0.000217035,0.00126454,9.58542,-0.474685,-1.93883,0.235627,1.36448,-3.01224
12601,0,-0.943035,-0.834898,-0.674062,0.00235213,0.014,-5.95443e-06,-7.28313e-06,1.37442e-05,0.134042,-0.00670535,-0.0269217,-0.000425316,-0.000520224,0.00098173,9.57441,-0.478953,-1.92298,0.235591,1.36454,-3.01228
12700,0,-0.943035,-0.833,-0.674071,-0.00209214,0.014,-1.00346e-05,-3.4141e-06,9.99056e-06,0.134016,-0.00647985,-0.0268177,-0.00071676,-0.000243864,0.000713611,9.57254,-0.462846,-1.91555,0.235647,1.3645,-3.01226
12800,0,-0.943035,-0.833039,-0.67406,0.0028327,0.014,-1.32006e-05,-2.0005e-05,2.39192e-05,0.133946,-0.00663431,-0.0268971,-0.0009429,-0.00142893,0.00170852,9.56756,-0.473879,-1.92122,0.235604,1.3645,-3.01229
12900,0,-0.943035,-0.833389,-0.674072,-0.00256524,0.014,-3.1693e-06,-2.20105e-05,1.97144e-05,0.134059,-0.00690742,-0.0269523,-0.000226379,-0.00157218,0.00140817,9.57563,-0.493387,-1.92516,0.235525,1.3645,-3.01237
13000,0,-0.943035,-0.832859,-0.674071,-0.000900033,0.014,6.69322e-07,-4.35618e-06,1.55138e-05,0.134071,-0.00684646,-0.0270499,4.78087e-05,-0.000311156,0.00110813,9.5765,-0.489033,-1.93213,0.235562,1.36449,-3.01233
13100,0,-0.943035,-0.832989,-0.674073,-0.00128001,0.014,3.6504e-06,-7.81219e-06,1.34445e-05,0.133976,-0.00662345,-0.0268926,0.000260742,-0.000558013,0.000960324,9.56973,-0.473104,-1.9209,0.235642,1.36442,-3.01226
13200,0,-0.943035,-0.833149,-0.674071,-0.00182017,0.014,7.03701e-06,-2.25406e-05,1.723e-05,0.134014,-0.0066202,-0.0269214,0.000502644,-0.00161004,0.00123071,9.57239,-0.472871,-1.92296,0.235623,1.3644,-3.01228
13300,0,-0.943035,-0.833018,-0.674072,-0.00217779,0.014,-7.64297e-06,-1.99397e-05,1.32342e-05,0.134117,-0.00678695,-0.0270972,-0.000545927,-0.00142426,0.000945302,9.57981,-0.484782,-1.93552,0.235525,1.36444,-3.01239
13400,0,-0.943035,-0.833648,-0.674063,-9.16246e-05,0.014,2.03132e-05,-1.85133e-05,-2.71073e-06,0.134003,-0.00674136,-0.0271361,0.00145094,-0.00132238,-0.000193623,9.57165,-0.481526,-1.93829,0.235382,1.36444,-3.01257
13500,0,-0.943035,-0.83304,-0.674067,-0.00226346,0.014,1.15809e-05,-2.12795e-05,1.91557e-05,0.133956,-0.00650511,-0.0270369,0.000827209,-0.00151997,0.00136827,9.56826,-0.46465,-1.93121,0.235509,1.36442,-3.01242
13600,0,-0.943035,-0.833303,-0.674073,-0.00306439,0.014,2.54474e-06,-2.71735e-05,1.60785e-05,0.13404,-0.00656314,-0.0269959,0.000181767,-0.00194096,0.00114846,9.5743,-0.468795,-1.92828,0.235671,1.36444,-3.01232
13700,0,-0.943035,-0.8333,-0.674073,-0.00181641,0.014,1.10346e-05,-2.06386e-05,2.94822e-05,0.134167,-0.00673559,-0.0271881,0.000788187,-0.00147419,0.00210587,9.58334,-0.481113,-1.942,0.235562,1.36444,-3.01245
13800,0,-0.943035,-0.833187,-0.674073,-0.00164876,0.014,-8.48913e-06,-1.68897e-05,1.31556e-05,0.134094,-0.00680402,-0.027208,-0.000606366,-0.00120641,0.000939684,9.57817,-0.486001,-1.94343,0.235501,1.36442,-3.01253
13900,0,-0.943035,-0.832939,-0.674073,-0.000963304,0.014,-8.33711e-06,-7.25638e-06,1.37421e-05,0.133971,-0.00662197,-0.0270357,-0.000595508,-0.000518312,0.000981578,9.56936,-0.472998,-1.93112,0.235625,1.36438,-3.01237
14000,0,-0.943035,-0.832973,-0.674068,-0.000657822,0.014,1.56515e-06,-1.50463e-05,2.2054e-05,0.133944,-0.00652236,-0.0269175,0.000111797,-0.00107474,0.00157528,9.56746,-0.465883,-1.92268,0.235751,1.36439,-3.01227
14100,0,-0.943035,-0.832962,-0.674073,-0.0033214,0.014,-1.09424e-05,-2.91508e-05,5.995e-06,0.134065,-0.006826,-0.0270757,-0.000781599,-0.0020822,0.000428214,9.57607,-0.487572,-1.93398,0.235657,1.36438,-3.01237
14200,0,-0.943035,-0.833039,-0.674066,-0.000870153,0.014,8.49186e-06,-9.85861e-06,4.19521e-06,0.134041,-0.00688699,-0.0271378,0.000606561,-0.000704186,0.000299658,9.57434,-0.491928,-1.93841,0.235468,1.36442,-3.01256
14300,0,-0.943035,-0.832706,-0.674071,-0.00294141,0.014,2.70439e-06,-2.39165e-05,4.94251e-06,0.133943,-0.00647323,-0.0270932,0.00019317,-0.00170832,0.000353036,9.56737,-0.462374,-1.93523,0.235557,1.36437,-3.01249
14400,0,-0.943035,-0.832906,-0.674057,0.00216969,0.014,1.10706e-05,-2.22362e-05,2.91817e-05,0.134048,-0.00650004,-0.0271737,0.000790759,-0.0015883,0.0020844,9.57486,-0.464288,-1.94098,0.235777,1.36435,-3.0123
14500,0,-0.943035,-0.833635,-0.674057,0.00541442,0.014,-2.45465e-06,-1.8025e-05,2.65516e-05,0.134071,-0.00664218,-0.0272466,-0.000175332,-0.0012875,0.00189654,9.57652,-0.474441,-1.94619,0.235764,1.36432,-3.01233
14600,0,-0.943035,-0.833265,-0.674072,-0.00316865,0.014,1.40269e-05,-2.09876e-05,2.10686e-06,0.134114,-0.00679854,-0.0272402,0.00100192,-0.00149912,0.00015049,9.57956,-0.48561,-1.94573,0.235512,1.36435,-3.0126
14700,0,-0.943035,-0.832929,-0.674054,0.00738511,0.014,5.17192e-06,-1.57946e-05,6.72295e-06,0.133994,-0.00648972,-0.0271227,0.000369422,-0.00112819,0.00048021,9.57098,-0.463551,-1.93734,0.235526,1.36435,-3.0126
14800,0,-0.943035,-0.833575,-0.674046,0.00927383,0.014,1.3236e-05,-1.99335e-05,2.67909e-05,0.134072,-0.00652253,-0.0271775,0.00094543,-0.00142382,0.00191363,9.57654,-0.465895,-1.94125,0.235667,1.3643,-3.01246
14900,0,-0.943035,-0.833193,-0.674073,-0.0022075,0.014,8.34066e-07,-1.67446e-05,9.16958e-06,0.134154,-0.00660637,-0.0273548,5.95761e-05,-0.00119604,0.00065497,9.5824,-0.471883,-1.95391,0.235474,1.3643,-3.01264
15000,0,-0.943035,-0.833079,-0.674073,-0.00199143,0.014,6.27732e-06,-1.4962e-05,4.61829e-06,0.134045,-0.00651953,-0.0273046,0.00044838,-0.00106871,0.000329878,9.57467,-0.465681,-1.95033,0.235276,1.36434,-3.01283
15100,0,-0.943035,-0.833324,-0.674073,-0.00291902,0.014,6.63104e-06,-1.8043e-05,1.61831e-05,0.133996,-0.00634772,-0.027226,0.000473646,-0.00128878,0.00115594,9.57117,-0.453409,-1.94471,0.235349,1.36434,-3.01271
15200,0,-0.943035,-0.833275,-0.67406,0.00500468,0.014,-7.57385e-06,-1.52897e-05,8.83546e-06,0.133934,-0.0065633,-0.0272407,-0.000540989,-0.00109212,0.000631104,9.56668,-0.468807,-1.94576,0.235429,1.36434,-3.01262
15300,0,-0.943035,-0.833252,-0.674071,-0.00194671,0.014,1.12063e-05,-3.08802e-05,3.23178e-06,0.134076,-0.00654955,-0.0273715,0.000800448,-0.00220573,0.000230841,9.57683,-0.467825,-1.95511,0.235502,1.36436,-3.01257
15400,0,-0.943035,-0.833804,-0.674055,0.00521703,0.014,-4.16014e-06,-3.27487e-05,2.08359e-05,0.134067,-0.00662007,-0.0273302,-0.000297153,-0.00233919,0.00148828,9.57618,-0.472862,-1.95215,0.235706,1.36433,-3.01234
15500,0,-0.943035,-0.833156,-0.674061,5.3778e-05,0.014,6.65635e-06,-1.86714e-05,1.04154e-05,0.133983,-0.00653663,-0.02736,0.000475453,-0.00133367,0.000743954,9.57019,-0.466902,-1.95428,0.235749,1.36432,-3.01234
15600,0,-0.943035,-0.833362,-0.674072,-5.42512e-05,0.014,-5.92385e-06,-1.84183e-05,1.22898e-05,0.133988,-0.00647526,-0.0273358,-0.000423132,-0.00131559,0.000877843,9.57057,-0.462518,-1.95256,0.235672,1.36432,-3.01243
15700,0,-0.943035,-0.832721,-0.674072,-0.000218161,0.014,-3.45395e-06,-3.02523e-05,2.54252e-05,0.134067,-0.00642676,-0.0273655,-0.000246711,-0.00216088,0.00181609,9.57624,-0.459054,-1.95468,0.2358,1.36432,-3.01232
15800,0,-0.943035,-0.832839,-0.67405,0.00366732,0.014,-1.01615e-05,-2.9057e-05,1.91775e-05,0.134014,-0.00667263,-0.0272345,-0.000725818,-0.0020755,0.00136982,9.57243,-0.476616,-1.94532,0.23598,1.36433,-3.01215
15900,0,-0.943035,-0.833588,-0.674073,-0.00231921,0.014,-1.81083e-07,-1.26611e-05,4.22311e-06,0.134037,-0.00663172,-0.0271706,-1.29345e-05,-0.000904365,0.00030165,9.57405,-0.473694,-1.94076,0.235959,1.36432,-3.01214
16000,0,-0.943035,-0.833107,-0.674063,0.00192018,0.014,-2.89985e-06,-1.32723e-05,1.39062e-05,0.134063,-0.00658062,-0.0272329,-0.000207132,-0.000948018,0.000993299,9.57594,-0.470044,-1.9452,0.235704,1.36433,-3.01236
16100,0,-0.943035,-0.83433,-0.67406,0.00323149,0.014,-1.84696e-06,-8.0858e-06,1.83561e-05,0.134018,-0.0064886,-0.0272398,-0.000131926,-0.000577556,0.00131115,9.57268,-0.463471,-1.9457,0.235887,1.36435,-3.01218
16200,0,-0.943035,-0.832832,-0.674073,-0.00265074,0.014,4.65676e-06,-1.39068e-05,1.00977e-05,0.133996,-0.00658355,-0.0272022,0.000332625,-0.000993342,0.000721263,9.57112,-0.470253,-1.94301,0.235943,1.36435,-3.01213
16300,0,-0.943035,-0.834491,-0.674072,-0.00122395,0.014,-1.17004e-05,-3.29833e-05,1.93974e-05,0.134066,-0.00670193,-0.0271675,-0.000835745,-0.00235595,0.00138553,9.57611,-0.478709,-1.94053,0.235974,1.36432,-3.01212
16400,0,-0.00119469,0,-0.674079,-0.000247921,0.014,4.16297e-06,-1.21901e-05,1.70832e-05,0.133957,-0.0066064,-0.0272284,0.000297355,-0.000870721,0.00122023,9.56835,-0.471886,-1.94489,0.236091,1.36431,-3.01197
16500,0,0.0064776,0,-0.67409,-0.00496414,0.014,4.36334e-06,-2.44511e-05,5.30727e-06,0.134001,-0.00650622,-0.0272719,0.000311667,-0.00174651,0.000379091,9.5715,-0.46473,-1.94799,0.235969,1.36429,-3.01215
16600,0,-0.0117695,0,-0.674063,-0.00339952,0.014,1.76971e-06,-2.31492e-05,1.08441e-05,0.134062,-0.00649861,-0.0272336,0.000126408,-0.00165352,0.000774577,9.57584,-0.464186,-1.94526,0.236005,1.36428,-3.01214
16700,0,0.0100178,0,-0.674083,-0.0062829,0.014,2.37069e-07,-1.50875e-05,1.23204e-05,0.134155,-0.00656911,-0.0272324,1.69335e-05,-0.00107768,0.000880025,9.58248,-0.469222,-1.94517,0.23595,1.36431,-3.01219
16800,0,-0.00604189,0,-0.674076,-0.00403282,0.014,-8.01641e-06,-2.54665e-05,1.82617e-05,0.134084,-0.00645894,-0.0272243,-0.000572601,-0.00181903,0.00130441,9.57746,-0.461353,-1.94459,0.235942,1.36433,-3.01221
16900,0,-0.00235085,0,-0.674064,0.00117886,0.014,-8.17541e-07,-1.70537e-05,1.23731e-05,0.13399,-0.00652066,-0.027324,-5.83958e-05,-0.00121812,0.000883793,9.57068,-0.465761,-1.95171,0.235935,1.36435,-3.01221
17000,0,-0.00700635,0,-0.674062,0.000765348,0.014,-1.02544e-05,-2.02298e-05,1.95388e-05,0.134037,-0.00652678,-0.0273312,-0.000732455,-0.00144499,0.00139563,9.57405,-0.466199,-1.95223,0.235957,1.36434,-3.01221
17100,0,0.00597745,0,-0.674058,0.007564,0.014,4.2453e-06,-3.52439e-05,1.70885e-05,0.13418,-0.00640144,-0.0272973,0.000303235,-0.00251742,0.00122061,9.5843,-0.457246,-1.94981,0.235901,1.36434,-3.01226
17200,0,0.002362,0,-0.674043,0.00553745,0.014,8.9157e-06,-4.45151e-05,9.54057e-06,0.133989,-0.00672691,-0.0271888,0.000636836,-0.00317965,0.000681469,9.57064,-0.480494,-1.94205,0.235999,1.36432,-3.01214
17300,0,0.00155046,0,-0.67406,0.00646505,0.014,3.09685e-07,-2.34201e-05,-7.30371e-07,0.134181,-0.00637163,-0.0273164,2.21204e-05,-0.00167286,-5.21693e-05,9.58434,-0.455116,-1.95117,0.235847,1.36431,-3.01228
17400,0,-0.00453021,0,-0.67407,0.00555608,0.014,-7.68683e-06,-3.48955e-05,8.66832e-06,0.134117,-0.00620998,-0.0274414,-0.000549059,-0.00249254,0.000619166,9.57979,-0.44357,-1.9601,0.235819,1.36431,-3.01231
17500,0,0.00271381,0,-0.674083,-0.0065474,0.014,4.56898e-06,-3.02664e-05,1.54085e-05,0.134007,-0.00629197,-0.0276739,0.000326356,-0.00216189,0.00110061,9.57193,-0.449427,-1.97671,0.235866,1.3643,-3.01225
17600,0,-0.00853704,0,-0.674079,-0.00484122,0.014,6.42264e-06,-2.43646e-05,8.98294e-06,0.134092,-0.00630609,-0.0275514,0.00045876,-0.00174033,0.000641639,9.578,-0.450435,-1.96796,0.235839,1.36428,-3.01229
17700,0,0.00751252,0,-0.674079,-0.00474064,0.014,4.51746e-06,-1.3333e-05,1.30615e-05,0.134071,-0.0063295,-0.0274521,0.000322676,-0.000952361,0.000932963,9.57647,-0.452107,-1.96086,0.235909,1.36429,-3.01228
17800,0,0.00582942,0,-0.674074,0.000806322,0.014,1.13829e-06,-1.86493e-05,2.23755e-05,0.134029,-0.00654147,-0.0272295,8.13062e-05,-0.00133209,0.00159825,9.5735,-0.467248,-1.94496,0.235869,1.3643,-3.01233
17900,0,-0.000144987,0,-0.674072,0.000605147,0.014,-1.174e-05,-1.41092e-05,2.83529e-05,0.134033,-0.00668513,-0.0269953,-0.000838572,-0.0010078,0.00202521,9.57377,-0.477509,-1.92824,0.236102,1.36428,-3.0121
18000,0,0.00667694,0,-0.67407,0.00237094,0.014,-4.05719e-06,-1.26126e-05,1.05404e-05,0.13404,-0.00669943,-0.0273523,-0.000289799,-0.000900903,0.000752883,9.57426,-0.47853,-1.95373,0.236016,1.36428,-3.0122
18100,0,0.0180454,0,-0.674081,-0.00548942,0.014,1.35525e-06,-3.85624e-06,1.89202e-05,0.133973,-0.00675266,-0.0272908,9.68033e-05,-0.000275446,0.00135144,9.56951,-0.482333,-1.94935,0.236188,1.36428,-3.01202
18200,0,-0.00768142,0,-0.674033,0.011293,0.014,4.88281e-06,-1.33939e-05,1.11122e-05,0.13374,-0.00732328,-0.0267988,0.000348772,-0.000956707,0.00079373,9.55289,-0.523091,-1.9142,0.236147,1.36424,-3.01208
18300,0,-0.0122371,0,-0.674041,0.00315324,0.014,-2.12014e-05,-2.27443e-05,2.66487e-05,0.133941,-0.00719378,-0.0268974,-0.00151438,-0.00162459,0.00190348,9.56722,-0.513841,-1.92124,0.236236,1.36422,-3.01194
18400,0,0.0135535,0,-0.674042,0.00789926,0.014,-5.95772e-06,-1.03163e-05,1.41566e-05,0.134082,-0.00696955,-0.0270662,-0.000425551,-0.00073688,0.00101118,9.57731,-0.497825,-1.9333,0.236247,1.36422,-3.01198
18500,0,-2.12132e-05,0,-0.674059,0.00215113,0.014,6.01099e-06,-2.2592e-05,1.29958e-05,0.133945,-0.00671971,-0.0270118,0.000429356,-0.00161371,0.000928269,9.5675,-0.479979,-1.92942,0.236235,1.36419,-3.01197
18600,0,0.00918555,0,-0.674074,-0.0019504,0.014,-1.86226e-05,-7.29575e-06,2.02262e-05,0.134053,-0.0062614,-0.0270124,-0.00133018,-0.000521125,0.00144473,9.5752,-0.447243,-1.92946,0.236339,1.36419,-3.01185
18700,0,-0.00371589,0,-0.674084,-0.0073558,0.014,-2.55097e-06,-3.07097e-05,9.8989e-06,0.134062,-0.00646592,-0.0270663,-0.000182212,-0.00219355,0.000707064,9.57588,-0.461851,-1.93331,0.236408,1.36419,-3.0118
18800,0,-0.00812577,0,-0.674047,0.00218839,0.014,2.11872e-09,-1.57513e-05,1.82445e-05,0.134087,-0.00687864,-0.0271535,1.51337e-07,-0.00112509,0.00130318,9.57763,-0.491332,-1.93954,0.236444,1.36422,-3.01178
18900,0,0.0093422,0,-0.674064,0.00545548,0.014,3.85062e-06,-3.3119e-05,-3.50486e-07,0.134038,-0.00669826,-0.0271888,0.000275044,-0.00236564,-2.50347e-05,9.57413,-0.478447,-1.94206,0.236417,1.36422,-3.01181
19000,0,0.00966487,0,-0.674067,0.00132786,0.014,-7.02616e-06,-2.30723e-05,9.02017e-06,0.134051,-0.00626567,-0.0271514,-0.000501869,-0.00164802,0.000644298,9.57504,-0.447548,-1.93938,0.23652,1.36425,-3.01171
19100,0,-0.00460318,0,-0.674053,-0.00212548,0.014,-3.61413e-05,-3.94974e-05,2.85271e-05,0.134039,-0.00660858,-0.0271295,-0.00258152,-0.00282124,0.00203765,9.57419,-0.472042,-1.93782,0.236656,1.36426,-3.01157
19200,0,-0.00670987,0,-0.674081,-0.000300098,0.014,-2.93704e-05,0.000338952,-0.000178428,0.133904,-0.0056561,-0.0315982,-0.00209789,0.0242108,-0.0127448,9.56458,-0.404007,-2.25702,0.235562,1.3659,-3.01249
19300,0,-0.0101334,0,-0.674037,-0.00219627,0.014,6.0942e-05,-5.8709e-05,-4.32756e-05,0.133683,-0.00235515,-0.0309936,0.004353,-0.0041935,-0.00309111,9.54882,-0.168225,-2.21383,0.236359,1.36602,-3.01163
19400,0,-0.00185679,0,-0.674042,0.000582799,0.014,2.76771e-05,-0.000140732,0.000176477,0.133334,-0.00404875,-0.03079,0.00197694,-0.0100523,0.0126055,9.52383,-0.289197,-2.19928,0.237077,1.36509,-3.01101
19500,0,-0.0142391,0,-0.67407,-0.00112711,0.014,-1.1607e-05,0.000120349,8.08359e-05,0.134305,-0.00707818,-0.0308823,-0.000829068,0.00859636,0.00577399,9.59324,-0.505584,-2.20588,0.236606,1.36481,-3.01156
19600,0,0.00574073,0,-0.674028,-9.52051e-05,0.014,7.74745e-07,0.00012751,4.16134e-05,0.133991,-0.00626404,-0.0277761,5.53389e-05,0.00910786,0.00297238,9.57076,-0.447432,-1.984,0.236777,1.36461,-3.01146
19700,0,0.00975239,0,-0.674076,-0.000724775,0.014,-2.16538e-05,8.57278e-05,9.02266e-05,0.133904,-0.00598765,-0.0260916,-0.0015467,0.00612341,0.00644475,9.56456,-0.427689,-1.86369,0.237081,1.36452,-3.01118
19800,0,-0.00583434,0,-0.674053,0.00360774,0.014,-4.43527e-06,6.13832e-05,6.90561e-05,0.13399,-0.00768436,-0.0257797,-0.000316805,0.00438451,0.00493258,9.5707,-0.548883,-1.84141,0.236717,1.36451,-3.01162
19900,0,-0.010322,0,-0.67405,0.00286268,0.014,-5.95166e-06,3.61904e-05,1.94989e-05,0.134352,-0.00770018,-0.0252042,-0.000425118,0.00258503,0.00139278,9.59654,-0.550013,-1.8003,0.236208,1.36452,-3.01217
20000,0,0.0107045,0,-0.674058,0.00250506,0.014,2.43606e-06,6.72863e-05,1.45911e-05,0.133956,-0.00702767,-0.0259917,0.000174004,0.00480616,0.00104222,9.56831,-0.501977,-1.85655,0.236412,1.3645,-3.01194
20100,0,-0.00442885,0,-0.674066,0.00294091,0.014,3.24978e-06,3.71175e-05,3.94595e-05,0.13387,-0.00666438,-0.0253451,0.000232127,0.00265125,0.00281854,9.56211,-0.476027,-1.81036,0.236575,1.36443,-3.01175
20200,0,0.00660451,0,-0.674074,-0.000762029,0.014,1.8153e-06,-1.5123e-06,3.97283e-05,0.134323,-0.0070244,-0.0255738,0.000129664,-0.000108022,0.00283774,9.59447,-0.501743,-1.8267,0.236293,1.36444,-3.01204
20300,0,-0.00410676,0,-0.67409,0.00258328,0.014,-2.1986e-05,-1.00351e-05,1.31627e-06,0.134273,-0.00740915,-0.0257976,-0.00157043,-0.000716796,9.40195e-05,9.59092,-0.529225,-1.84268,0.236014,1.36448,-3.01233
20400,0,-0.0145846,0,-0.674077,0.00211389,0.014,-1.55485e-05,-3.47579e-05,3.95453e-06,0.133984,-0.00670946,-0.0257529,-0.0011106,-0.00248271,0.000282466,9.57028,-0.479247,-1.8395,0.236248,1.36445,-3.01208
20500,0,-0.0039333,0,-0.674068,0.0031309,0.014,-3.09684e-05,-4.22259e-05,2.81538e-05,0.134435,-0.00615415,-0.0257461,-0.00221203,-0.00301613,0.00201098,9.60251,-0.439582,-1.83901,0.236349,1.36444,-3.01198
20600,0,-0.0095622,0,-0.674104,-0.00506101,0.014,-2.56511e-05,-2.81096e-05,1.50698e-05,0.134115,-0.00736937,-0.0264426,-0.00183222,-0.00200783,0.00107641,9.57964,-0.526383,-1.88876,0.236227,1.36449,-3.01208
20700,0,0.00121736,0,-0.674079,0.00592859,0.014,-1.49669e-05,-5.1596e-05,-7.48126e-06,0.133852,-0.00724365,-0.0265446,-0.00106907,-0.00368543,-0.000534375,9.56085,-0.517403,-1.89604,0.23609,1.36448,-3.01221
20800,0,0.00958933,0,-0.674082,-0.00263212,0.014,2.06522e-05,-1.74828e-05,-1.44472e-05,0.134082,-0.0065176,-0.0264319,0.00147515,-0.00124877,-0.00103194,9.57726,-0.465543,-1.88799,0.236294,1.36448,-3.01201
20900,0,0.00188891,0,-0.674095,-0.00546334,0.014,9.71078e-07,-3.35699e-05,1.43575e-05,0.133777,-0.00658443,-0.0266891,6.93627e-05,-0.00239785,0.00102554,9.55551,-0.470317,-1.90637,0.236358,1.36447,-3.01192
21000,0,0.0089197,0,-0.674082,0.000884555,0.014,-5.28996e-06,-3.16153e-05,2.7824e-05,0.134004,-0.00693934,-0.0271762,-0.000377854,-0.00225823,0.00198743,9.57169,-0.495667,-1.94116,0.236289,1.36447,-3.01197
21100,0,0.00278673,0,-0.674065,0.00431554,0.014,-5.3832e-06,-1.83064e-05,5.027e-06,0.134237,-0.00670002,-0.0273687,-0.000384515,-0.0013076,0.000359072,9.58833,-0.478573,-1.95491,0.236283,1.36451,-3.01199
21200,0,0.0146129,0,-0.674059,0.00130924,0.014,1.05031e-05,-3.85188e-05,-1.60753e-06,0.133939,-0.00655684,-0.0271737,0.000750221,-0.00275134,-0.000114823,9.56706,-0.468345,-1.94098,0.236165,1.36447,-3.01208
21300,0,-0.00396519,0,-0.674083,-0.000948287,0.014,-3.98577e-06,-4.85382e-05,2.12664e-05,0.133838,-0.00675698,-0.0271154,-0.000284698,-0.00346701,0.00151903,9.55985,-0.482641,-1.93681,0.236247,1.36446,-3.01198
21400,0,-0.0115534,0,-0.674062,-0.00108239,0.014,3.42979e-07,-1.80554e-05,1.67661e-05,0.134256,-0.00642829,-0.0270735,2.44985e-05,-0.00128967,0.00119758,9.58975,-0.459163,-1.93382,0.236256,1.36447,-3.01198
21500,0,-0.00373931,0,-0.67409,0.0021139,0.014,-7.00637e-06,-1.65599e-05,2.02542e-05,0.134028,-0.00678623,-0.027119,-0.000500455,-0.00118285,0.00144673,9.57339,-0.48473,-1.93707,0.236085,1.36448,-3.01215
21600,0,0.0120622,0,-0.674079,0.00366734,0.014,-1.3529e-05,-2.64386e-05,8.46918e-06,0.134068,-0.00646399,-0.0269968,-0.000966359,-0.00188847,0.000604941,9.57627,-0.461713,-1.92834,0.236039,1.36448,-3.01217
21700,0,-0.00823671,0,-0.674073,-0.00446869,0.014,-5.53773e-06,-3.15245e-05,1.37211e-05,0.134074,-0.0064662,-0.0269751,-0.000395552,-0.00225175,0.000980079,9.57674,-0.461871,-1.9268,0.235996,1.36447,-3.01221
21800,0,0.00307223,0,-0.67407,0.00493394,0.014,-6.16026e-06,-4.00456e-05,1.7721e-05,0.13406,-0.00689394,-0.0273266,-0.000440019,-0.0028604,0.00126579,9.57568,-0.492424,-1.9519,0.235757,1.36446,-3.01242
21900,0,-0.004774,0,-0.674079,-0.000672627,0.014,-5.5526e-06,-3.78249e-05,9.42165e-06,0.134011,-0.00671991,-0.0270883,-0.000396614,-0.00270178,0.000672975,9.57224,-0.479994,-1.93488,0.235645,1.36448,-3.0125
22000,0,-0.00230813,0,-0.674085,-0.00191687,0.014,3.71196e-06,-3.57245e-05,7.96177e-06,0.133854,-0.00642988,-0.0271369,0.00026514,-0.00255175,0.000568698,9.56099,-0.459277,-1.93835,0.235677,1.36445,-3.01248
22100,0,-0.000654585,0,-0.674076,-0.000959476,0.014,1.47165e-06,-3.56903e-05,5.61215e-07,0.134164,-0.00632118,-0.0269392,0.000105118,-0.0025493,4.00868e-05,9.58315,-0.451513,-1.92423,0.235677,1.36443,-3.0125
22200,0,0.00159688,0,-0.674053,0.00781359,0.014,4.3493e-06,-4.46055e-05,2.25299e-05,0.134148,-0.00680039,-0.0271893,0.000310664,-0.00318611,0.00160928,9.58197,-0.485742,-1.9421,0.235543,1.36446,-3.01263
22300,0,0.012918,0,-0.674082,-0.00248684,0.014,-4.51824e-06,-3.43633e-05,-1.01595e-05,0.134064,-0.00671681,-0.0272716,-0.000322732,-0.00245452,-0.000725677,9.57602,-0.479772,-1.94797,0.235409,1.36449,-3.01278
22400,0,-0.0100298,0,-0.674074,-0.00113083,0.014,-1.24045e-05,-2.39904e-05,-1.83358e-06,0.134026,-0.0063567,-0.0272754,-0.000886035,-0.0017136,-0.00013097,9.57327,-0.45405,-1.94824,0.235425,1.36449,-3.01273
22500,0,0.0132964,0,-0.674087,-0.00386148,0.014,1.68806e-05,-2.01248e-05,1.22797e-05,0.13402,-0.00627917,-0.0273024,0.00120576,-0.00143749,0.000877119,9.57286,-0.448512,-1.95017,0.235391,1.36452,-3.01276
22600,0,-0.00201285,0,-0.674087,-0.0109582,0.014,-5.94771e-06,-4.03951e-05,2.38904e-05,0.134086,-0.00671637,-0.0274186,-0.000424836,-0.00288537,0.00170646,9.57754,-0.479741,-1.95847,0.235481,1.36453,-3.01271
22700,0,0.000533005,0,-0.674073,-0.000437936,0.014,-1.34994e-06,-2.28348e-05,-3.73112e-06,0.134012,-0.00667726,-0.0274583,-9.64243e-05,-0.00163106,-0.000266509,9.57232,-0.476947,-1.96131,0.235296,1.36456,-3.01289
22800,0,0.0119519,0,-0.674087,-0.00495299,0.014,-7.27236e-06,-2.77434e-05,7.93419e-06,0.134008,-0.00640775,-0.0273134,-0.000519454,-0.00198167,0.000566728,9.57203,-0.457696,-1.95096,0.235342,1.36454,-3.01287
22900,0,0.00762441,0,-0.674075,-0.00373109,0.014,-7.13119e-06,-2.34027e-05,1.82792e-05,0.134068,-0.00618359,-0.0272267,-0.000509371,-0.00167162,0.00130565,9.57629,-0.441685,-1.94476,0.235511,1.36449,-3.01268
23000,0,0.00993724,0,-0.674061,0.00122354,0.014,-9.19399e-06,-2.86662e-05,3.1081e-05,0.134114,-0.00657007,-0.0275013,-0.000656713,-0.00204759,0.00222007,9.57959,-0.469291,-1.96438,0.235449,1.36451,-3.01273
23100,0,0.00147315,0,-0.674079,-0.0122248,0.014,-4.37249e-06,-1.58622e-05,1.76703e-06,0.13409,-0.00664782,-0.0274902,-0.00031232,-0.00113301,0.000126216,9.57788,-0.474844,-1.96358,0.235276,1.36453,-3.01289
23200,0,-4.36828e-05,0,-0.674074,-0.00139162,0.014,6.41086e-06,-3.38518e-05,1.06409e-05,0.133973,-0.00631954,-0.0274328,0.000457919,-0.00241798,0.000760064,9.56953,-0.451396,-1.95949,0.235341,1.36451,-3.01281
23300,0,-0.00756237,0,-0.674067,-0.00293017,0.014,-3.75502e-07,-2.29877e-05,1.82755e-05,0.133954,-0.00630069,-0.0275976,-2.68216e-05,-0.00164198,0.00130539,9.56811,-0.450049,-1.97125,0.235523,1.36448,-3.01264
23400,0,-0.00467054,0,-0.674058,0.010805,0.014,-9.59224e-06,-2.97107e-05,2.99294e-05,0.134121,-0.00654791,-0.027625,-0.00068516,-0.00212219,0.00213781,9.58005,-0.467708,-1.97321,0.235533,1.36451,-3.0126
23500,0,0.01071,0,-0.674069,-0.000665197,0.014,-5.03356e-06,-3.68278e-05,2.00699e-05,0.134124,-0.00651767,-0.0276301,-0.00035954,-0.00263056,0.00143356,9.58027,-0.465548,-1.97358,0.235514,1.36449,-3.01259
23600,0,-0.00323946,0,-0.674075,-0.00462145,0.014,-8.62872e-06,-1.41077e-05,4.13208e-06,0.134153,-0.00625573,-0.0275148,-0.000616337,-0.00100769,0.000295149,9.58238,-0.446838,-1.96534,0.235559,1.36447,-3.01256
23700,0,0.00634551,0,-0.674078,-0.00231177,0.014,-6.45684e-06,-1.13181e-05,1.06181e-05,0.134026,-0.00642196,-0.0275059,-0.000461203,-0.000808437,0.000758435,9.57332,-0.458712,-1.96471,0.235526,1.36448,-3.01259
23800,0,0.00529561,0,-0.674062,0.00151037,0.014,-4.17893e-06,-1.91072e-05,1.13168e-05,0.133971,-0.00655826,-0.0274351,-0.000298495,-0.0013648,0.000808344,9.56935,-0.468447,-1.95965,0.235427,1.36448,-3.01269
23900,0,0.0115812,0,-0.674069,-0.00159651,0.014,4.58735e-06,-2.8192e-05,1.59892e-05,0.134068,-0.00658222,-0.0274989,0.000327668,-0.00201372,0.00114208,9.57631,-0.470158,-1.96421,0.235477,1.36446,-3.01264
24000,0,-0.0275499,0,-0.674086,-0.00419677,0.014,-4.6412e-06,-1.63827e-05,1.08917e-05,0.13402,-0.00645272,-0.0274457,-0.000331514,-0.00117019,0.000777981,9.57285,-0.460908,-1.96041,0.235391,1.36445,-3.01273
24100,0,-0.00531197,0,-0.674056,0.00458001,0.014,4.04923e-06,-5.09307e-06,1.57225e-05,0.134007,-0.00639856,-0.0273644,0.000289231,-0.00036379,0.00112304,9.57193,-0.45704,-1.9546,0.235376,1.36445,-3.01272
24200,0,-0.00943419,0,-0.674057,0.0025162,0.014,-1.45629e-05,-2.15074e-05,3.031e-05,0.134086,-0.00633124,-0.0275593,-0.00104021,-0.00153624,0.002165,9.57755,-0.452231,-1.96852,0.235282,1.36441,-3.01279
24300,0,0.00926821,0,-0.674052,0.00113412,0.014,1.20265e-05,-1.31793e-05,1.11694e-05,0.13423,-0.00638201,-0.0275711,0.000859032,-0.000941375,0.000797816,9.58782,-0.455858,-1.96937,0.235167,1.36439,-3.01291
24400,0,0.00225959,0,-0.674071,-0.00113458,0.014,1.47436e-05,-9.11469e-06,9.42441e-06,0.133976,-0.00662396,-0.0275279,0.00105311,-0.000651049,0.000673172,9.56969,-0.47314,-1.96628,0.235185,1.36441,-3.01292
24500,0,0.00297503,0,-0.674067,0.00032946,0.014,-3.39277e-07,2.28473e-06,2.41115e-05,0.133929,-0.00639899,-0.0272994,-2.4234e-05,0.000163195,0.00172225,9.56637,-0.45707,-1.94996,0.235391,1.36444,-3.01271
24600,0,-0.000628401,0,-0.674075,-0.00610784,0.014,-1.27968e-06,-1.41061e-05,2.54002e-05,0.134026,-0.00644942,-0.0273789,-9.14054e-05,-0.00100758,0.0018143,9.57331,-0.460673,-1.95564,0.235385,1.36446,-3.01269
24700,0,0.00384502,0,-0.674069,0.00538468,0.014,-9.05746e-06,-8.32883e-06,2.30973e-05,0.134106,-0.00657601,-0.0273115,-0.000646962,-0.000594917,0.00164981,9.57902,-0.469715,-1.95082,0.235403,1.36446,-3.01263
24800,0,-0.00441796,0,-0.674064,-0.0021702,0.014,1.65302e-05,-2.09483e-05,5.29427e-06,0.134108,-0.00665924,-0.027222,0.00118073,-0.00149631,0.000378162,9.57911,-0.47566,-1.94443,0.235357,1.36444,-3.01269
24900,0,7.80225e-05,0,-0.674067,-0.00162258,0.014,-1.32039e-05,-1.04145e-05,1.05119e-05,0.134041,-0.00651011,-0.0272312,-0.000943134,-0.000743891,0.000750851,9.57435,-0.465008,-1.94509,0.235132,1.36441,-3.01292
25000,0,0.0060732,0,-0.674069,0.00510156,0.014,-8.61247e-06,-2.86165e-05,2.30705e-05,0.134012,-0.00662825,-0.0271229,-0.000615176,-0.00204404,0.00164789,9.5723,-0.473447,-1.93735,0.235248,1.36439,-3.01283
25100,0,0.00685632,0,-0.674078,0.00365988,0.014,1.57649e-06,-1.55126e-05,2.05611e-05,0.134047,-0.00670718,-0.0271578,0.000112607,-0.00110804,0.00146865,9.57475,-0.479084,-1.93984,0.235354,1.36439,-3.01273
25200,0,-0.00168463,0,-0.67409,-0.000497549,0.014,-4.44726e-06,-2.62301e-05,-4.99636e-07,0.134074,-0.00662466,-0.0271792,-0.000317662,-0.00187358,-3.56883e-05,9.57672,-0.47319,-1.94137,0.235394,1.3644,-3.01269
25300,0,-0.00645645,0,-0.674098,-0.00525103,0.014,3.7046e-06,-3.00003e-05,1.48297e-05,0.134071,-0.00647724,-0.0271644,0.000264615,-0.00214288,0.00105926,9.57651,-0.46266,-1.94032,0.235395,1.3644,-3.0127
25400,0,-0.00856761,0,-0.67408,0.00140608,0.014,-8.51488e-06,-3.6442e-05,7.0108e-06,0.13402,-0.00652732,-0.0273585,-0.000608206,-0.002603,0.000500772,9.57284,-0.466237,-1.95418,0.235383,1.36439,-3.0127
25500,0,0.00223755,0,-0.674067,0.00857353,0.014,-2.35107e-06,-2.32046e-05,1.03176e-05,0.134069,-0.00653977,-0.0274191,-0.000167934,-0.00165747,0.000736973,9.57633,-0.467127,-1.95851,0.235338,1.36443,-3.01276
25600,0,0.00565137,0,-0.674079,0.000366718,0.014,1.33667e-05,-2.70989e-05,1.07889e-05,0.134006,-0.00649048,-0.027106,0.000954766,-0.00193564,0.000770638,9.57186,-0.463606,-1.93614,0.235396,1.36444,-3.01274
25700,0,0.00644857,0,-0.67404,0.00370457,0.014,3.38392e-06,-4.09397e-05,1.07537e-05,0.134075,-0.00648562,-0.0273216,0.000241708,-0.00292426,0.000768124,9.57675,-0.463258,-1.95155,0.235528,1.36442,-3.01266
25800,0,-0.00300452,0,-0.674062,0.00522822,0.014,-3.54969e-06,-2.70908e-05,9.83131e-06,0.134035,-0.00649555,-0.0274257,-0.000253549,-0.00193506,0.000702236,9.57395,-0.463968,-1.95898,0.235537,1.36443,-3.01264
25900,0,0.00883256,0,-0.674045,0.00519469,0.014,-1.85853e-08,-2.36634e-05,5.14991e-06,0.13403,-0.0063196,-0.0275883,-1.32752e-06,-0.00169024,0.000367851,9.57359,-0.4514,-1.97059,0.235511,1.36441,-3.01266
26001,0,0.00337436,0,-0.67407,0.00113785,0.014,4.25148e-06,-2.15749e-05,1.16903e-05,0.134109,-0.00626167,-0.02753,0.000303677,-0.00154106,0.000835018,9.5792,-0.447262,-1.96643,0.235577,1.36442,-3.01259
26100,0,-8.7974e-05,0,-0.67411,-0.0126681,0.014,-6.26567e-07,-2.33069e-05,2.44185e-05,0.134114,-0.00642042,-0.0275624,-4.47548e-05,-0.00166478,0.00174418,9.5796,-0.458601,-1.96874,0.235622,1.36439,-3.01256
26200,0,-0.00599973,0,-0.674102,-0.0106676,0.014,-1.6417e-05,-2.75939e-05,1.21934e-05,0.134072,-0.00650713,-0.0276596,-0.00117264,-0.00197099,0.000870958,9.5766,-0.464795,-1.97569,0.235571,1.3644,-3.01259
26301,0,-0.00451687,0,-0.674091,-0.0104329,0.014,1.19442e-05,-1.31979e-05,3.95015e-06,0.134008,-0.00633992,-0.0276158,0.000853155,-0.000942706,0.000282153,9.57198,-0.452851,-1.97256,0.235519,1.3644,-3.01264
26401,0,0.000568448,0,-0.674084,-0.00505731,0.014,-5.92257e-06,-2.6815e-05,3.16107e-05,0.133957,-0.00625937,-0.0276385,-0.00042304,-0.00191536,0.00225791,9.56833,-0.447098,-1.97418,0.235675,1.36436,-3.0125
26500,0,-8.14804e-05,0,-0.674072,-0.00363797,0.014,-3.39148e-07,-3.0967e-05,1.24526e-05,0.134137,-0.00632887,-0.0277461,-2.42249e-05,-0.00221192,0.000889472,9.58118,-0.452062,-1.98187,0.235696,1.36438,-3.01249
26600,0,0.00170118,0,-0.674085,-0.00605568,0.014,1.53224e-07,-3.3682e-05,1.93251e-05,0.134117,-0.00647828,-0.0277486,1.09446e-05,-0.00240586,0.00138037,9.57975,-0.462734,-1.98204,0.235457,1.3644,-3.01273
26700,0,-2.63159e-05,0,-0.674063,0.00235975,0.014,4.21755e-07,-2.80919e-05,-6.74673e-06,0.134002,-0.00634425,-0.0276267,3.01254e-05,-0.00200656,-0.00048191,9.5716,-0.45316,-1.97334,0.235445,1.3644,-3.01273
26800,0,0.005156,0,-0.674088,-0.00294134,0.014,-8.4498e-06,-2.26316e-05,8.88808e-06,0.134027,-0.00622129,-0.0276266,-0.000603557,-0.00161654,0.000634863,9.57335,-0.444378,-1.97333,0.235731,1.36437,-3.01245
26900,0,0.00576012,0,-0.674063,0.00630856,0.014,-1.00377e-05,-1.27412e-05,3.08026e-06,0.134079,-0.00643271,-0.0276957,-0.000716976,-0.000910088,0.000220019,9.57709,-0.45948,-1.97826,0.235572,1.36443,-3.0126
27000,0,0.00242969,0,-0.674082,-0.00311643,0.014,1.21799e-06,-3.48662e-05,6.14844e-06,0.134101,-0.00667394,-0.0275108,8.69996e-05,-0.00249045,0.000439174,9.57862,-0.47671,-1.96505,0.235386,1.36444,-3.01279
27102,0,0.000479267,0,-0.674057,0.000590234,0.014,-2.06493e-06,-1.07318e-05,6.14772e-06,0.134051,-0.00632635,-0.0275683,-0.000147495,-0.000766555,0.000439123,9.57504,-0.451882,-1.96916,0.235426,1.36447,-3.01276
27200,0,-0.00776061,0,-0.67409,-0.00313879,0.014,-2.93033e-06,-1.90235e-05,1.27342e-05,0.134032,-0.00628082,-0.0276587,-0.000209309,-0.00135882,0.000909584,9.57369,-0.44863,-1.97562,0.235463,1.36448,-3.01274
27301,0,-0.00928698,0,-0.674082,-0.00608549,0.014,-1.17171e-05,-2.67715e-05,1.80815e-05,0.134022,-0.00651361,-0.0276886,-0.000836936,-0.00191225,0.00129154,9.57299,-0.465258,-1.97776,0.235441,1.36452,-3.01277
27400,0,-0.0020471,0,-0.674073,-0.00472949,0.014,3.22572e-06,-2.14951e-05,1.06467e-05,0.134074,-0.0065013,-0.0276237,0.000230408,-0.00153537,0.000760476,9.57673,-0.464379,-1.97312,0.235393,1.36453,-3.0128
27500,0,0.0111648,0,-0.6741,-0.00753465,0.014,-1.48486e-06,-1.31368e-05,1.15648e-05,0.134067,-0.00640601,-0.0274969,-0.000106062,-0.000938344,0.000826057,9.57624,-0.457572,-1.96406,0.235385,1.36452,-3.01277
27600,0,0.00252186,0,-0.674086,-0.00588807,0.014,-1.19354e-06,-1.6116e-05,1.14556e-05,0.133966,-0.00647145,-0.0273677,-8.52528e-05,-0.00115114,0.00081826,9.56903,-0.462246,-1.95483,0.235386,1.36454,-3.01276
27700,0,-0.014071,0,-0.674061,-0.000117593,0.014,-7.4619e-06,-1.19659e-05,1.27194e-05,0.13404,-0.00651155,-0.0273447,-0.000532993,-0.000854711,0.000908531,9.57431,-0.465111,-1.95319,0.235408,1.36455,-3.01276
27800,0,0.0141285,0,-0.674071,-0.00298979,0.014,-9.32157e-06,-2.12737e-05,9.29571e-07,0.134052,-0.00659144,-0.0272768,-0.000665826,-0.00151955,6.6398e-05,9.57512,-0.470817,-1.94834,0.235245,1.36455,-3.01296
27900,0,0.00383709,0,-0.674063,-8.7782e-05,0.014,5.83451e-06,-8.56624e-06,6.26771e-06,0.134016,-0.00655986,-0.0271705,0.000416751,-0.000611874,0.000447693,9.57256,-0.468561,-1.94075,0.235163,1.36457,-3.01307
28000,0,0.0141599,0,-0.674082,-0.00115322,0.014,2.86958e-06,-1.70852e-05,1.30725e-05,0.134098,-0.00654034,-0.0272208,0.00020497,-0.00122037,0.000933747,9.57842,-0.467167,-1.94434,0.235216,1.3646,-3.013
28100,0,0.00115154,0,-0.67404,0.00411062,0.014,-8.07723e-07,-1.41037e-05,7.13184e-06,0.133937,-0.00664355,-0.0271199,-5.76945e-05,-0.00100741,0.000509417,9.56693,-0.474539,-1.93714,0.23527,1.36457,-3.01294
28200,0,0.00278407,0,-0.674052,0.00349595,0.014,1.31148e-06,-1.55212e-05,2.60962e-05,0.134065,-0.00667741,-0.0270789,9.36772e-05,-0.00110866,0.00186401,9.57606,-0.476958,-1.93421,0.235328,1.3646,-3.01286
28300,0,0.00729669,0,-0.674073,0.000839819,0.014,-7.75733e-07,-2.8776e-05,1.59772e-05,0.134113,-0.00659049,-0.0271241,-5.54095e-05,-0.00205543,0.00114123,9.57949,-0.470749,-1.93744,0.235267,1.36461,-3.01292
28400,0,0.0170565,0,-0.674078,-0.0033027,0.014,-3.56427e-06,-2.05555e-05,4.29487e-06,0.13399,-0.00654829,-0.027153,-0.000254591,-0.00146825,0.000306777,9.5707,-0.467735,-1.9395,0.235272,1.36462,-3.01294
28500,0,0.00659395,0,-0.674085,-0.00554532,0.014,-3.63718e-06,-4.21293e-05,2.47619e-05,0.134153,-0.0065289,-0.0270177,-0.000259798,-0.00300923,0.00176871,9.58238,-0.46635,-1.92984,0.235206,1.36456,-3.01301
28600,0,-0.00637967,0,-0.674095,-0.00944198,0.014,-1.30808e-05,-2.13248e-05,1.67869e-05,0.134041,-0.00674532,-0.0270895,-0.000934346,-0.0015232,0.00119906,9.57434,-0.481808,-1.93497,0.235056,1.36457,-3.0131
28700,0,-0.00499399,0,-0.674103,-0.0169112,0.014,-7.8781e-06,-2.66267e-05,8.78435e-06,0.134039,-0.00664978,-0.0270004,-0.000562721,-0.0019019,0.000627453,9.57421,-0.474984,-1.9286,0.235176,1.3646,-3.01295
28800,0,-0.00884561,0,-0.674067,0.00132411,0.014,-4.96551e-06,-3.44554e-05,1.41353e-05,0.134025,-0.00653489,-0.0271114,-0.000354679,-0.0024611,0.00100966,9.57318,-0.466778,-1.93653,0.235234,1.36462,-3.01286
28900,0,-0.0227984,0,-0.674079,-0.00245333,0.014,-1.46574e-05,-1.66612e-05,1.02541e-05,0.134093,-0.00659451,-0.0272995,-0.00104696,-0.00119008,0.000732435,9.5781,-0.471036,-1.94996,0.235199,1.36461,-3.01287
29000,0,0.0130533,0,-0.674066,0.00451669,0.014,4.00261e-06,-2.17023e-05,1.35532e-06,0.134063,-0.00649387,-0.02755,0.0002859,-0.00155017,9.68083e-05,9.57595,-0.463848,-1.96786,0.235014,1.36461,-3.01303
29100,0,-0.0113138,0,-0.674099,-0.00189081,0.014,-1.19924e-06,-2.31317e-05,8.17476e-06,0.134008,-0.00621495,-0.0279537,-8.56598e-05,-0.00165226,0.000583911,9.57201,-0.443925,-1.9967,0.235046,1.36463,-3.01299
29200,0,0.00833179,0,-0.674088,0.000340633,0.014,3.66311e-06,-2.3478e-05,2.44715e-05,0.134027,-0.00614527,-0.0279761,0.000261651,-0.001677,0.00174796,9.57335,-0.438948,-1.99829,0.235245,1.36467,-3.01279
29300,0,-0.00312101,0,-0.67407,0.00319049,0.014,1.37215e-06,-3.72029e-05,1.17612e-05,0.134087,-0.00626341,-0.0284086,9.80105e-05,-0.00265735,0.000840086,9.57762,-0.447386,-2.02919,0.235241,1.36469,-3.0128
29400,0,0.00415003,0,-0.674045,0.0124814,0.014,9.48697e-07,-1.89723e-05,1.46284e-05,0.13403,-0.00623673,-0.0285159,6.77641e-05,-0.00135516,0.00104489,9.57357,-0.44548,-2.03685,0.235253,1.36466,-3.01277
29500,0,0.00680924,0,-0.67408,-0.000449123,0.014,2.0086e-06,-3.61648e-05,1.67868e-05,0.134028,-0.00598515,-0.0281623,0.000143471,-0.0025832,0.00119906,9.57343,-0.427511,-2.01159,0.235309,1.36463,-3.01274
29600,0,-0.0127573,0,-0.674063,0.00250503,0.014,-1.88521e-06,-2.02568e-05,1.9516e-05,0.134123,-0.00623832,-0.0280149,-0.000134658,-0.00144691,0.001394,9.58021,-0.445594,-2.00107,0.235339,1.36462,-3.01271
29700,0,-0.00213572,0,-0.674077,-0.00193924,0.014,7.2709e-07,-1.25125e-05,2.27005e-05,0.134116,-0.00647117,-0.0278067,5.1935e-05,-0.000893751,0.00162146,9.57968,-0.462226,-1.98619,0.23537,1.36463,-3.01271
29800,0,-0.00270846,0,-0.674077,-0.00319467,0.014,-9.70479e-06,-8.9057e-06,1.67046e-05,0.134045,-0.00641809,-0.0276949,-0.000693199,-0.000636121,0.00119319,9.57467,-0.458435,-1.97821,0.235324,1.36465,-3.01274
29900,0,0.00275103,0,-0.674054,-0.000892435,0.014,3.06009e-06,-6.18538e-06,8.27791e-06,0.133931,-0.00642043,-0.0273496,0.000218578,-0.000441813,0.000591279,9.56649,-0.458602,-1.95354,0.235396,1.36464,-3.01268
30000,0,-0.00846557,0,-0.674077,-0.00314251,0.014,-1.05138e-05,-1.66468e-05,2.50915e-05,0.134019,-0.00664381,-0.0272404,-0.000750983,-0.00118906,0.00179225,9.57276,-0.474558,-1.94575,0.235397,1.36463,-3.01267
30100,0,0.0108157,0,-0.674083,-0.00015483,0.014,2.11011e-06,-3.06715e-05,1.34356e-05,0.134098,-0.00676781,-0.0272235,0.000150722,-0.00219082,0.000959685,9.57842,-0.483415,-1.94453,0.23528,1.36458,-3.01279
30200,0,0.00300655,0,-0.674074,0.00426336,0.014,2.7366e-06,-1.75479e-05,8.97071e-06,0.133945,-0.00655519,-0.027312,0.000195471,-0.00125342,0.000640765,9.56749,-0.468228,-1.95086,0.235332,1.3646,-3.01274
30300,0,-0.00329358,0,-0.67407,0.00399142,0.014,7.31346e-06,-1.43138e-05,2.04281e-05,0.134048,-0.00625753,-0.0273133,0.00052239,-0.00102241,0.00145915,9.57489,-0.446967,-1.95095,0.235466,1.36462,-3.01263
30400,0,0.00162835,0,-0.67409,-0.00157044,0.014,8.76476e-07,-1.62253e-05,2.67863e-05,0.134118,-0.00658804,-0.0276308,6.26054e-05,-0.00115895,0.00191331,9.57989,-0.470574,-1.97363,0.235418,1.3646,-3.0127
30500,0,-0.00423981,0,-0.674099,-0.00836909,0.014,3.36782e-06,-1.88858e-05,7.25306e-06,0.134086,-0.00666971,-0.0276091,0.000240558,-0.00134898,0.000518076,9.57754,-0.476408,-1.97208,0.235343,1.36462,-3.01281
30600,0,0.00449247,0,-0.674059,0.00395045,0.014,-5.40684e-06,-2.05735e-05,3.87316e-07,0.133957,-0.00640549,-0.0273361,-0.000386203,-0.00146953,2.76654e-05,9.56835,-0.457535,-1.95258,0.235376,1.3646,-3.01276
30700,0,-0.00853443,0,-0.674071,0.0017786,0.014,-1.22321e-05,-3.37289e-05,1.16715e-05,0.133972,-0.00624636,-0.0274091,-0.000873718,-0.00240921,0.00083368,9.56944,-0.446168,-1.95779,0.235518,1.36457,-3.01262
30800,0,-0.000352893,0,-0.674069,0.00170037,0.014,7.21359e-06,-3.26665e-05,1.4905e-05,0.134106,-0.00648187,-0.0275431,0.000515256,-0.00233332,0.00106464,9.57897,-0.46299,-1.96737,0.235491,1.3646,-3.01268
30900,0,-0.0016713,0,-0.674065,-0.00182375,0.014,3.20737e-06,-3.57913e-05,-3.67544e-06,0.13407,-0.00642105,-0.0275835,0.000229098,-0.00255652,-0.000262531,9.57642,-0.458646,-1.97025,0.235364,1.36458,-3.0128
31000,0,0.00649108,0,-0.674054,0.00408456,0.014,6.25698e-06,-2.6396e-05,1.3203e-05,0.133938,-0.00610374,-0.0274833,0.000446927,-0.00188543,0.00094307,9.56697,-0.435981,-1.96309,0.235556,1.3646,-3.01262
31100,0,0.000535197,0,-0.674098,-0.00371621,0.014,1.7398e-06,-2.88127e-05,2.03815e-05,0.134156,-0.00627563,-0.0277505,0.000124272,-0.00205805,0.00145582,9.5826,-0.44826,-1.98218,0.235471,1.36462,-3.0127
31200,0,-0.00374051,0,-0.674084,0.00134646,0.014,-5.41692e-06,-2.69431e-05,8.98215e-06,0.13413,-0.00642905,-0.0277269,-0.000386923,-0.0019245,0.000641582,9.5807,-0.459218,-1.9805,0.235311,1.36463,-3.01287
31300,0,-0.00628823,0,-0.674069,0.00117882,0.014,-1.58249e-06,-2.10558e-05,2.97382e-06,0.133955,-0.00654732,-0.0275777,-0.000113035,-0.00150398,0.000212416,9.56824,-0.467666,-1.96983,0.235414,1.36462,-3.01276
31400,0,-0.00424174,0,-0.674067,0.0051537,0.014,2.43528e-06,-1.43642e-05,1.92923e-05,0.134018,-0.00643335,-0.0272409,0.000173949,-0.00102602,0.00137802,9.5727,-0.459525,-1.94578,0.235594,1.36459,-3.01256
31500,0,0.0151511,0,-0.674081,-0.0111631,0.014,5.70186e-06,-3.81509e-06,2.3504e-05,0.134035,-0.00652056,-0.0272094,0.000407275,-0.000272506,0.00167885,9.57393,-0.465754,-1.94353,0.235595,1.3646,-3.01259
31602,0,0.00980897,0,-0.67406,0.00625267,0.014,3.44222e-06,-1.6618e-05,9.16494e-06,0.134065,-0.0067276,-0.0273108,0.000245873,-0.001187,0.000654638,9.57605,-0.480543,-1.95077,0.235396,1.36461,-3.01277
31700,0,0.000205563,0,-0.674058,0.00233738,0.014,8.60231e-06,-4.16914e-06,7.87604e-06,0.13404,-0.00640589,-0.0270215,0.000614451,-0.000297796,0.000562574,9.57432,-0.457564,-1.93011,0.235349,1.36462,-3.01283
31800,0,-0.00346279,0,-0.6741,-0.00500889,0.014,5.14748e-06,-1.45954e-05,2.51323e-05,0.13403,-0.0063711,-0.0269512,0.000367677,-0.00104253,0.00179516,9.57354,-0.455078,-1.92508,0.235462,1.36461,-3.01273
31900,0,-0.0037792,0,-0.674078,-0.00295253,0.014,3.99038e-06,-1.00218e-05,2.41578e-05,0.134138,-0.00674035,-0.0270267,0.000285027,-0.000715843,0.00172556,9.58129,-0.481454,-1.93048,0.235408,1.36462,-3.01279
32000,0,0.0291175,0,-0.674073,0.00656559,0.014,4.93863e-06,-2.0516e-05,1.03483e-05,0.134044,-0.00693825,-0.0272064,0.000352759,-0.00146543,0.000739163,9.57458,-0.495589,-1.94332,0.235453,1.36462,-3.01273
32100,0,0.00561767,0,-0.674088,-0.00563473,0.014,7.7675e-07,-1.3186e-05,3.55854e-06,0.134071,-0.00656407,-0.0270582,5.54821e-05,-0.000941856,0.000254181,9.5765,-0.468862,-1.93273,0.235403,1.3646,-3.01274
32200,0,0.0013939,0,-0.674083,0.00159233,0.014,-2.78984e-07,-1.42926e-05,1.67783e-05,0.133913,-0.00644327,-0.0271281,-1.99274e-05,-0.0010209,0.00119845,9.56519,-0.460234,-1.93772,0.235531,1.36459,-3.01259
32300,0,0.00345923,0,-0.674088,-0.00247568,0.014,-2.40832e-05,-2.90115e-05,2.57143e-05,0.134123,-0.00660764,-0.027264,-0.00172023,-0.00207225,0.00183673,9.58023,-0.471974,-1.94743,0.235566,1.36459,-3.01252
32400,0,0.00104979,0,-0.674076,0.00496745,0.014,3.33781e-06,-2.35856e-05,6.55885e-06,0.134153,-0.0067887,-0.0272541,0.000238415,-0.00168469,0.000468489,9.58234,-0.484907,-1.94672,0.235413,1.3646,-3.0127
32500,0,0.00503876,0,-0.674057,0.00429317,0.014,1.02745e-05,-2.56506e-05,-3.17907e-07,0.134056,-0.00651626,-0.027025,0.000733894,-0.00183218,-2.27077e-05,9.57542,-0.465447,-1.93036,0.235312,1.3646,-3.01279
32600,0,-0.007299,0,-0.674098,-0.0090322,0.014,-1.08142e-05,-1.70619e-05,2.07878e-05,0.134059,-0.00647375,-0.0269288,-0.000772441,-0.0012187,0.00148484,9.57566,-0.462411,-1.92349,0.235465,1.36459,-3.01262
32700,0,0.0064791,0,-0.674088,-0.00938238,0.014,4.28351e-06,-2.43094e-05,2.3284e-05,0.13402,-0.00667892,-0.0273206,0.000305965,-0.00173639,0.00166314,9.57283,-0.477065,-1.95147,0.235393,1.36454,-3.01268
32800,0,-0.00424441,0,-0.674112,-0.00875281,0.014,9.00092e-07,-6.97917e-06,1.30932e-05,0.134098,-0.00676432,-0.0272874,6.42923e-05,-0.000498512,0.000935228,9.57839,-0.483166,-1.9491,0.235245,1.36458,-3.01282
32900,0,0.00871318,0,-0.674073,-0.00611158,0.014,-7.21125e-06,-1.45354e-05,1.69747e-05,0.134104,-0.0064529,-0.0270026,-0.000515089,-0.00103824,0.00121248,9.57888,-0.460921,-1.92875,0.23538,1.36454,-3.01265
33000,0,-0.00866058,0,-0.674035,0.0059919,0.014,1.97032e-05,-3.34569e-06,1.70358e-05,0.133986,-0.00669488,-0.0268575,0.00140737,-0.000238978,0.00121684,9.5704,-0.478206,-1.91839,0.23547,1.36452,-3.01258
33100,0,0.00191885,0,-0.674064,0.00338419,0.014,-9.31101e-06,-2.11892e-05,1.26722e-05,0.134026,-0.00679926,-0.0268476,-0.000665072,-0.00151351,0.000905157,9.57332,-0.485661,-1.91768,0.235564,1.36455,-3.0125
33200,0,-0.00261457,0,-0.674071,-0.00576512,0.014,1.36585e-05,-1.58044e-05,1.55066e-05,0.134042,-0.0067232,-0.0269625,0.000975607,-0.00112889,0.00110762,9.57445,-0.480228,-1.92589,0.235566,1.36457,-3.01251
33300,0,0.00206596,0,-0.674092,-0.00560122,0.014,-1.14682e-06,1.24642e-06,2.12391e-05,0.134056,-0.00653096,-0.0269914,-8.1916e-05,8.90298e-05,0.00151708,9.57546,-0.466497,-1.92795,0.235573,1.36459,-3.0125
33400,0,-0.0045852,0,-0.674087,-0.00501261,0.014,1.98299e-06,-2.26633e-05,2.07851e-05,0.134024,-0.00664755,-0.0272253,0.000141642,-0.00161881,0.00148465,9.57312,-0.474825,-1.94467,0.235733,1.36457,-3.01236
33500,0,-0.0201792,0,-0.674066,-0.00602963,0.014,-2.81276e-06,-7.99506e-06,8.93625e-06,0.134027,-0.00664152,-0.0272983,-0.000200912,-0.000571076,0.000638304,9.57335,-0.474394,-1.94988,0.235551,1.36463,-3.01252
33600,0,0.00886123,0,-0.674086,-0.00689389,0.014,-7.3292e-06,-2.22191e-05,6.48937e-06,0.133915,-0.00651539,-0.0272341,-0.000523514,-0.00158708,0.000463527,9.56538,-0.465385,-1.94529,0.235541,1.36465,-3.01253
33700,0,-0.00737949,0,-0.67408,-0.000404433,0.014,7.71799e-06,-2.28346e-05,2.02849e-05,0.134008,-0.00666982,-0.0273851,0.000551285,-0.00163105,0.00144892,9.57199,-0.476416,-1.95608,0.235445,1.36467,-3.01262
33800,0,0.00419992,0,-0.674091,-0.00365661,0.014,-3.00934e-06,-1.8585e-05,1.30561e-05,0.134076,-0.00668674,-0.0275575,-0.000214953,-0.0013275,0.000932576,9.57683,-0.477624,-1.96839,0.235428,1.36472,-3.01265
33900,0,0.00450367,0,-0.674093,-0.00412972,0.014,-1.08056e-05,-7.89036e-06,8.5359e-06,0.133994,-0.00662351,-0.0275852,-0.000771828,-0.000563597,0.000609707,9.571,-0.473108,-1.97037,0.235565,1.36474,-3.01249
34000,0,0.00578578,0,-0.674081,0.000277297,0.014,7.33899e-06,-1.29322e-05,-2.48185e-06,0.134073,-0.00624368,-0.0276787,0.000524213,-0.000923727,-0.000177275,9.57664,-0.445977,-1.97705,0.235724,1.36473,-3.01233
34100,0,-0.0026286,0,-0.674054,0.00126078,0.014,5.1067e-06,-1.2514e-05,1.28208e-05,0.13409,-0.0061569,-0.0275894,0.000364764,-0.000893858,0.000915774,9.57787,-0.439779,-1.97067,0.235649,1.36474,-3.01238
34200,0,-0.00725208,0,-0.674042,0.00410318,0.014,-5.23013e-06,-1.3449e-05,2.7585e-05,0.134061,-0.00659234,-0.027567,-0.000373581,-0.000960641,0.00197036,9.57579,-0.470882,-1.96907,0.235599,1.36474,-3.01245
34300,0,-0.0021583,0,-0.674075,-0.00394718,0.014,8.98488e-07,-2.52146e-05,8.36322e-06,0.134023,-0.00667682,-0.0272676,6.41777e-05,-0.00180105,0.000597373,9.57305,-0.476916,-1.94768,0.235441,1.36471,-3.01256
34400,0,0.00624741,0,-0.674071,-0.0021106,0.014,-1.08193e-06,1.08211e-06,1.78247e-05,0.134018,-0.00648066,-0.0270454,-7.72803e-05,7.72933e-05,0.00127319,9.5727,-0.462905,-1.93181,0.235484,1.36473,-3.01254
34500,0,0.00238106,0,-0.674081,-0.00655488,0.014,1.26868e-05,-9.86037e-06,2.03172e-05,0.133979,-0.00651658,-0.0270322,0.000906202,-0.000704312,0.00145123,9.56992,-0.46547,-1.93087,0.235588,1.36472,-3.01248
34600,0,-0.00184369,0,-0.674059,0.00548899,0.014,9.73512e-07,-1.19809e-05,1.49375e-05,0.134073,-0.00661639,-0.0271537,6.95365e-05,-0.000855778,0.00106696,9.57666,-0.472599,-1.93955,0.235453,1.36473,-3.01258
34700,0,-0.00376348,0,-0.67407,-0.00471458,0.014,-6.91278e-06,-1.45284e-05,1.24363e-05,0.13407,-0.00663169,-0.0272239,-0.00049377,-0.00103775,0.000888307,9.57644,-0.473692,-1.94456,0.235427,1.36475,-3.01261
34800,0,-0.00296465,0,-0.674063,-0.000355988,0.014,-3.52729e-06,-2.3631e-06,4.20747e-06,0.133975,-0.00660366,-0.0274555,-0.000251949,-0.000168793,0.000300533,9.56962,-0.47169,-1.96111,0.235472,1.36474,-3.01258
34900,0,-0.000555831,0,-0.674053,0.0103542,0.014,2.12569e-06,-7.84255e-06,1.22654e-05,0.13405,-0.00628635,-0.0274391,0.000151835,-0.000560182,0.000876101,9.575,-0.449025,-1.95993,0.235507,1.36478,-3.01255
35000,0,0.000539331,0,-0.674071,0.00742987,0.014,7.73962e-06,1.18221e-05,2.32123e-05,0.134081,-0.00632537,-0.0274867,0.00055283,0.000844433,0.00165802,9.57722,-0.451812,-1.96334,0.235578,1.36479,-3.01249
35100,0,-0.00720302,0,-0.674069,0.00270248,0.014,-1.7049e-05,9.27689e-06,1.36359e-05,0.134118,-0.00654484,-0.027329,-0.00121779,0.000662635,0.000973996,9.57988,-0.467488,-1.95207,0.235439,1.36478,-3.01263
35200,0,0.0021667,0,-0.674076,0.000783952,0.014,-1.03572e-05,3.65492e-06,1.79206e-05,0.134071,-0.00661423,-0.0272233,-0.000739803,0.000261065,0.00128004,9.57649,-0.472445,-1.94452,0.235357,1.36476,-3.01269
35300,0,-0.00274936,0,-0.674075,-0.00404775,0.014,-1.55202e-05,-8.31829e-07,2.12818e-05,0.134117,-0.00648776,-0.0271258,-0.00110859,-5.94163e-05,0.00152013,9.57975,-0.463411,-1.93756,0.235355,1.36477,-3.01266
35400,0,-0.0163879,0,-0.674058,-0.00208452,0.014,1.93316e-06,-2.28229e-06,1.58679e-05,0.133956,-0.00636756,-0.0273506,0.000138083,-0.000163021,0.00113342,9.56828,-0.454825,-1.95361,0.235316,1.36474,-3.0127
35500,0,0.0115462,0,-0.674083,-0.00125751,0.014,-2.11631e-06,-2.7494e-06,1.92957e-05,0.134098,-0.00663565,-0.0270489,-0.000151165,-0.000196386,0.00137827,9.57845,-0.473974,-1.93206,0.235172,1.36472,-3.01285
35600,0,0.0105683,0,-0.674105,-0.00758305,0.014,-1.35565e-05,-4.91248e-06,1.99394e-05,0.134127,-0.0068797,-0.0269536,-0.00096832,-0.000350891,0.00142424,9.58048,-0.491406,-1.92526,0.234995,1.36472,-3.01302
35700,0,-0.00832888,0,-0.674081,-0.0012277,0.014,-6.70862e-06,-1.91116e-05,6.53237e-06,0.134081,-0.00653456,-0.0270878,-0.000479187,-0.00136512,0.000466598,9.57723,-0.466755,-1.93485,0.235022,1.3647,-3.01298
35800,0,0.0073365,0,-0.67409,-0.00273272,0.014,4.22913e-06,-2.35427e-05,1.4896e-05,0.134129,-0.00622306,-0.027023,0.000302081,-0.00168162,0.001064,9.58064,-0.444504,-1.93022,0.235282,1.36466,-3.01273
35900,0,0.00998792,0,-0.674098,-0.0083281,0.014,-3.59408e-06,-4.47053e-05,1.44088e-05,0.134064,-0.00668934,-0.027288,-0.00025672,-0.00319324,0.0010292,9.57598,-0.47781,-1.94915,0.235171,1.36464,-3.01284
36000,0,0.00394835,0,-0.674071,-0.00173807,0.014,-1.32011e-06,-2.23163e-05,-6.68378e-06,0.134029,-0.00667753,-0.0274568,-9.42938e-05,-0.00159402,-0.000477413,9.57349,-0.476967,-1.9612,0.235112,1.36468,-3.0129
36100,0,0.00281072,0,-0.67407,-0.00234157,0.014,-6.40288e-06,-2.89342e-05,6.24084e-06,0.134053,-0.00655235,-0.0269808,-0.000457349,-0.00206673,0.000445774,9.57518,-0.468025,-1.9272,0.235124,1.36469,-3.01288
36200,0,0.0131849,0,-0.674073,-0.00270665,0.014,1.94502e-05,-3.57086e-05,7.41011e-07,0.133982,-0.00644435,-0.0270583,0.0013893,-0.00255062,5.29294e-05,9.57013,-0.460311,-1.93273,0.235122,1.3647,-3.01289
36301,0,-0.00366308,0,-0.674064,0.00461727,0.014,-1.11888e-06,-2.85075e-05,1.59408e-05,0.134087,-0.00660459,-0.0272463,-7.99203e-05,-0.00203625,0.00113863,9.57761,-0.471756,-1.94616,0.235062,1.3647,-3.01295
36400,0,-0.00625935,0,-0.674071,-0.00645802,0.014,1.29624e-06,-3.10506e-05,5.20582e-06,0.134101,-0.00654191,-0.027344,9.25885e-05,-0.0022179,0.000371844,9.57862,-0.467279,-1.95314,0.235021,1.36471,-3.01298
36500,0,0.0212173,0,-0.674073,0.000340635,0.014,-3.54999e-06,-3.42403e-05,5.71796e-06,0.134086,-0.00639433,-0.0272066,-0.000253571,-0.00244574,0.000408426,9.57754,-0.456738,-1.94333,0.234975,1.3647,-3.01302
36600,0,-0.00414889,0,-0.674059,0.0106001,0.014,-7.38246e-06,-3.71061e-05,8.17945e-06,0.134079,-0.00647586,-0.0272003,-0.000527319,-0.00265043,0.000584247,9.5771,-0.462561,-1.94288,0.234872,1.36465,-3.01315
36700,0,-0.000425029,0,-0.674083,-0.00120908,0.014,1.07078e-05,-4.62884e-05,4.27706e-06,0.13413,-0.00658289,-0.0273242,0.00076484,-0.00330631,0.000305504,9.5807,-0.470206,-1.95173,0.234746,1.36465,-3.01329
36800,0,0.00564008,0,-0.674083,-0.00579119,0.014,-5.01821e-07,-3.50349e-05,-8.29827e-07,0.13406,-0.00690817,-0.0266398,-3.58443e-05,-0.00250249,-5.92733e-05,9.57567,-0.49344,-1.90284,0.234606,1.36465,-3.01341
36900,0,0.00135071,0,-0.674052,0.00785827,0.014,-4.84533e-06,-3.85925e-05,-9.41101e-06,0.13397,-0.00679359,-0.0264985,-0.000346094,-0.0027566,-0.000672214,9.5693,-0.485256,-1.89275,0.234672,1.36465,-3.01334
37000,0,-0.0133274,0,-0.674088,-0.00480771,0.014,-2.54346e-07,-5.15481e-05,-1.50826e-06,0.134048,-0.0068058,-0.0266745,-1.81676e-05,-0.003682,-0.000107733,9.57483,-0.486128,-1.90532,0.234815,1.36469,-3.01318
37100,0,0.0101556,0,-0.674083,0.000668454,0.014,-8.61522e-06,-6.28488e-05,-9.35201e-07,0.134041,-0.00678086,-0.0268113,-0.000615373,-0.0044892,-6.68001e-05,9.57439,-0.484347,-1.9151,0.234804,1.36467,-3.01318
37200,0,0.0122691,0,-0.674079,0.00153273,0.014,3.3283e-06,-5.61262e-05,5.54518e-06,0.133984,-0.00668773,-0.026896,0.000237736,-0.00400901,0.000396084,9.5703,-0.477695,-1.92115,0.234825,1.36463,-3.01316
37300,0,0.000279004,0,-0.674071,0.00621541,0.014,-7.15255e-07,-5.71852e-05,2.23561e-06,0.134106,-0.00656639,-0.0272209,-5.10896e-05,-0.00408466,0.000159686,9.57902,-0.469028,-1.94435,0.234854,1.36463,-3.01316
37400,0,0.00815285,0,-0.674074,0.00669597,0.014,-9.73811e-07,-4.68357e-05,-1.3667e-05,0.134059,-0.00637318,-0.0274439,-6.95579e-05,-0.00334541,-0.000976217,9.57564,-0.455227,-1.96028,0.234679,1.36467,-3.01337
37500,0,0.00141341,0,-0.674067,0.00880076,0.014,5.14498e-07,-5.42487e-05,1.54476e-05,0.134044,-0.00664889,-0.0267297,3.67498e-05,-0.00387491,0.0011034,9.57459,-0.474921,-1.90927,0.234762,1.36464,-3.01326
37600,0,0.00468775,0,-0.674073,0.00343262,0.014,-1.40294e-05,-3.94404e-05,3.80976e-06,0.134056,-0.00667924,-0.0270331,-0.0010021,-0.00281717,0.000272126,9.57544,-0.477088,-1.93094,0.234673,1.36468,-3.01333
37700,0,0.00266067,0,-0.674096,-0.0063202,0.014,-1.42494e-07,-2.13817e-05,3.89237e-06,0.134131,-0.00669607,-0.0273722,-1.01782e-05,-0.00152726,0.000278026,9.58075,-0.478291,-1.95516,0.234715,1.36475,-3.01331
37800,0,-0.00254382,0,-0.674077,0.00205798,0.014,-4.42184e-06,-3.41806e-05,8.94843e-06,0.133981,-0.00641871,-0.027475,-0.000315846,-0.00244147,0.000639173,9.57004,-0.458479,-1.9625,0.234714,1.36472,-3.01332
37900,0,-0.000961203,0,-0.674049,0.0126564,0.014,-3.7515e-06,-3.25597e-05,1.63172e-05,0.134058,-0.00622708,-0.0276219,-0.000267965,-0.00232569,0.00116551,9.57559,-0.444791,-1.97299,0.234756,1.36468,-3.01327
38000,0,-0.0164712,0,-0.674078,0.00273596,0.014,-1.02918e-05,-2.18438e-05,9.2851e-06,0.134136,-0.00639803,-0.0277498,-0.000735131,-0.00156027,0.000663222,9.58111,-0.457002,-1.98213,0.234703,1.36468,-3.01328
38100,0,0.00370856,0,-0.674082,-0.00293765,0.014,-4.31777e-06,-3.45688e-05,6.33173e-06,0.13412,-0.00648388,-0.0276795,-0.000308412,-0.0024692,0.000452267,9.58002,-0.463135,-1.97711,0.234551,1.3647,-3.01345
38200,0,0.00330134,0,-0.674096,-0.00685666,0.014,1.80664e-05,-2.87106e-05,-3.55329e-06,0.134128,-0.0065397,-0.0276159,0.00129045,-0.00205076,-0.000253806,9.58055,-0.467122,-1.97256,0.234545,1.36469,-3.01348
38300,0,-0.0236159,0,-0.674077,-0.00468854,0.014,1.26906e-05,-1.11345e-05,6.68897e-06,0.133992,-0.00629902,-0.0274218,0.00090647,-0.000795319,0.000477783,9.57085,-0.44993,-1.9587,0.234765,1.36469,-3.01331
38400,0,0.00895172,0,-0.674074,-0.00702801,0.014,-4.03576e-06,-4.24511e-05,1.46061e-05,0.134045,-0.00654525,-0.0272732,-0.000288268,-0.00303222,0.00104329,9.57464,-0.467518,-1.94809,0.234805,1.36466,-3.01326
38500,0,0.0250567,0,-0.674063,-0.000579541,0.014,-1.63641e-05,-3.2725e-05,3.75925e-06,0.13411,-0.00667931,-0.0273883,-0.00116886,-0.0023375,0.000268518,9.57929,-0.477094,-1.9563,0.234667,1.36466,-3.01339
38600,0,-0.00755503,0,-0.674084,-0.00682686,0.014,2.05562e-06,-2.62259e-05,-8.20076e-06,0.134048,-0.00645275,-0.0272877,0.00014683,-0.00187328,-0.000585769,9.57486,-0.460911,-1.94912,0.234548,1.36465,-3.0135
38700,0,-0.00461525,0,-0.674091,-0.00614886,0.014,7.59676e-06,-3.337e-05,1.4265e-05,0.133938,-0.00646775,-0.0271106,0.000542626,-0.00238357,0.00101893,9.56698,-0.461982,-1.93647,0.234843,1.3646,-3.01324
38801,0,-0.00199003,0,-0.674096,-0.00526969,0.014,-1.03615e-05,-2.29724e-05,3.4755e-05,0.134132,-0.00666044,-0.0271401,-0.000740107,-0.00164089,0.0024825,9.58085,-0.475745,-1.93858,0.234973,1.36458,-3.01311
38901,0,0.00134671,0,-0.674069,-0.00275886,0.014,-1.95155e-05,-1.4957e-05,1.68428e-05,0.134077,-0.00678827,-0.0273149,-0.00139397,-0.00106836,0.00120306,9.57691,-0.484877,-1.95106,0.234862,1.36459,-3.01324
39000,0,0.00134671,0,-0.674069,-0.00275886,0.014,1.08234e-05,1.87045e-06,-6.80135e-06,0.13409,-0.00646871,-0.0271385,0.000773101,0.000133604,-0.00048581,9.57786,-0.462051,-1.93846,0.234898,1.36456,-3.01322
39100,0,-0.00957516,0,-0.674053,0.00279927,0.014,9.95988e-06,-1.1427e-05,2.69516e-05,0.134062,-0.00627998,-0.0270755,0.00071142,-0.000816216,0.00192511,9.57588,-0.44857,-1.93396,0.235038,1.36456,-3.01309
39200,0,0.00168986,0,-0.674059,0.00640907,0.014,6.61679e-06,-1.20072e-05,3.52164e-05,0.134051,-0.00667379,-0.0270175,0.000472628,-0.000857656,0.00251546,9.57508,-0.476699,-1.92982,0.235041,1.36455,-3.01313
39300,0,-0.0172882,0,-0.674057,-0.00118308,0.014,1.24525e-06,-4.32275e-06,2.54441e-05,0.134184,-0.00692772,-0.0270062,8.89467e-05,-0.000308768,0.00181743,9.58458,-0.494837,-1.92902,0.235121,1.36456,-3.01306
39400,0,-0.000445633,0,-0.674073,0.00186049,0.014,2.50361e-06,-1.64803e-05,4.52667e-06,0.134104,-0.00657769,-0.0268002,0.00017883,-0.00117716,0.000323333,9.57887,-0.469835,-1.9143,0.235093,1.36456,-3.0131
39500,0,0.00269182,0,-0.674069,0.00564538,0.014,4.00501e-06,-1.62817e-05,1.5356e-05,0.134001,-0.00646355,-0.0268441,0.000286072,-0.00116298,0.00109686,9.57151,-0.461682,-1.91744,0.235091,1.36455,-3.0131
39600,0,-0.00785101,0,-0.674094,-0.00656984,0.014,-1.0872e-05,-1.35313e-05,2.66804e-05,0.134033,-0.00643099,-0.0272764,-0.000776569,-0.00096652,0.00190574,9.57382,-0.459356,-1.94831,0.235102,1.36457,-3.01306
39700,0,-0.000861377,0,-0.674081,0.0020095,0.014,-2.57978e-06,4.07903e-06,7.33372e-06,0.134116,-0.00674222,-0.0271028,-0.00018427,0.000291359,0.000523837,9.57972,-0.481587,-1.93591,0.234897,1.36459,-3.01322
39800,0,-0.00158225,0,-0.674083,0.0017301,0.014,-4.33263e-06,-4.73093e-06,1.88324e-05,0.133952,-0.00689728,-0.0270476,-0.000309473,-0.000337924,0.00134517,9.56797,-0.492662,-1.93197,0.234939,1.36458,-3.01319
39900,0,0.00747521,0,-0.67407,0.00220322,0.014,-8.56618e-06,-3.84006e-06,1.05579e-05,0.134033,-0.00659301,-0.0268546,-0.00061187,-0.00027429,0.000754134,9.57379,-0.470929,-1.91819,0.235135,1.36455,-3.01301
40000,0,-3.28356e-05,0,-0.67407,0.000985051,0.014,-1.2464e-05,-3.66682e-05,2.79354e-05,0.134082,-0.00656038,-0.0268324,-0.000890287,-0.00261916,0.00199539,9.57727,-0.468599,-1.9166,0.235193,1.36453,-3.01291
40100,0,0.00938473,0,-0.674063,0.00305258,0.014,1.78012e-05,-1.14317e-05,9.62106e-06,0.134083,-0.00678036,-0.0270507,0.00127151,-0.000816553,0.000687219,9.57738,-0.484311,-1.9322,0.235112,1.36455,-3.01299
40200,0,0.00131461,0,-0.674073,0.000239978,0.014,-4.7378e-06,-1.40244e-05,7.33369e-06,0.134055,-0.00655852,-0.0272342,-0.000338414,-0.00100174,0.000523835,9.57537,-0.468465,-1.9453,0.235144,1.36457,-3.01296
40300,0,0.00882335,0,-0.674085,-0.00627183,0.014,1.41669e-07,-1.09883e-05,1.92419e-05,0.134035,-0.00633821,-0.0272978,1.01192e-05,-0.000784877,0.00137442,9.57389,-0.452729,-1.94985,0.235091,1.36456,-3.01303
40400,0,-0.00527525,0,-0.674092,-0.0078886,0.014,-1.89486e-05,-2.51421e-05,1.53334e-05,0.134037,-0.00647634,-0.0273959,-0.00135347,-0.00179587,0.00109524,9.57409,-0.462596,-1.95685,0.235123,1.36456,-3.01304
40500,0,0.00444735,0,-0.674064,0.00303395,0.014,-1.67038e-05,-2.80706e-05,1.65922e-05,0.13434,-0.00669415,-0.0276906,-0.00119313,-0.00200505,0.00118516,9.59572,-0.478154,-1.9779,0.234891,1.36454,-3.01326
40600,0,0.0192037,0,-0.674064,-0.00250928,0.014,-3.60858e-05,-7.44874e-07,9.09298e-06,0.134007,-0.00631882,-0.0277153,-0.00257756,-5.32053e-05,0.000649498,9.5719,-0.451344,-1.97966,0.234796,1.36456,-3.0133
40700,0,-0.00245989,0,-0.674052,0.00605516,0.014,-6.44631e-06,-7.06474e-06,1.94053e-05,0.13425,-0.00542019,-0.0276625,-0.000460451,-0.000504624,0.00138609,9.58928,-0.387156,-1.97589,0.234869,1.36455,-3.01322
40800,0,0.000362187,0,-0.674075,0.000865832,0.014,-4.24337e-07,-2.3062e-05,2.18573e-05,0.134045,-0.00639415,-0.0278316,-3.03098e-05,-0.00164728,0.00156123,9.57464,-0.456725,-1.98797,0.234701,1.36453,-3.01331
40900,0,0.00674715,0,-0.674078,0.00127189,0.014,-1.38584e-05,7.82265e-06,2.88487e-05,0.134053,-0.00653167,-0.0277569,-0.000989888,0.000558761,0.00206062,9.57521,-0.466548,-1.98263,0.234811,1.36454,-3.01319
41000,0,-0.00571101,0,-0.674073,0.000243709,0.014,1.17299e-05,-1.39834e-05,1.61156e-05,0.134024,-0.00630429,-0.0281046,0.000837853,-0.000998818,0.00115112,9.57317,-0.450306,-2.00747,0.234914,1.36455,-3.01309
41100,0,0.00152696,0,-0.67406,-0.000180977,0.014,3.20643e-06,1.42118e-05,1.74655e-05,0.134063,-0.00630721,-0.0280947,0.000229031,0.00101513,0.00124753,9.57593,-0.450515,-2.00677,0.234964,1.36459,-3.01308
41200,0,-0.00387193,0,-0.67409,-0.00925579,0.014,-5.65606e-07,-7.2953e-06,2.34693e-05,0.133998,-0.00621774,-0.0277023,-4.04004e-05,-0.000521093,0.00167638,9.57132,-0.444124,-1.97874,0.234897,1.36455,-3.01313
41300,0,-0.0117943,0,-0.674057,-0.00191324,0.014,-1.23928e-05,1.15396e-05,1.74946e-05,0.134097,-0.00651036,-0.0279327,-0.000885203,0.000824255,0.00124961,9.57832,-0.465026,-1.99519,0.234881,1.36456,-3.01312
41400,0,-0.0184673,0,-0.674059,0.00550381,0.014,1.66208e-05,1.00951e-06,1.6832e-05,0.134081,-0.0063575,-0.0276066,0.0011872,7.21079e-05,0.00120229,9.57723,-0.454107,-1.9719,0.235071,1.36457,-3.01297
41500,0,-0.0112239,0,-0.67409,-0.00301965,0.014,1.42436e-06,-7.62785e-07,2.17707e-05,0.134092,-0.00629282,-0.0269852,0.00010174,-5.44846e-05,0.00155505,9.57801,-0.449487,-1.92751,0.235173,1.36455,-3.01288
41600,0,0.00323756,0,-0.674059,0.00562303,0.014,-1.78687e-05,-8.44114e-06,1.63274e-05,0.134112,-0.0069715,-0.0268266,-0.00127633,-0.000602938,0.00116624,9.57946,-0.497964,-1.91619,0.235087,1.36457,-3.01294
41700,0,-0.00176645,0,-0.674057,-0.000244304,0.014,1.84572e-06,0.000103864,-2.62144e-05,0.134282,-0.00580344,-0.0265256,0.000131837,0.00741889,-0.00187245,9.59159,-0.414532,-1.89468,0.235108,1.36483,-3.01292
41800,0,-0.00583284,0,-0.674074,0.00426702,0.014,-2.34181e-05,5.7863e-05,2.84846e-05,0.134391,-0.00213972,-0.0257262,-0.00167272,0.00413307,0.00203461,9.59934,-0.152837,-1.83759,0.236043,1.36454,-3.01193
41900,0,0.0110587,0,-0.674015,0.00275083,0.014,7.23567e-07,-0.000191318,0.000176399,0.136546,-0.00565622,-0.0321524,5.16834e-05,-0.0136655,0.0125999,9.75329,-0.404016,-2.2966,0.235743,1.36427,-3.01231
42000,0,-0.00500687,0,-0.673939,-0.00659592,0.014,8.7472e-05,0.000322156,-0.000274944,0.134647,-0.00600983,-0.0354122,0.006248,0.0230112,-0.0196389,9.61765,-0.429274,-2.52944,0.235453,1.36484,-3.01274
42100,0,-0.00148322,0,-0.674079,0.00522071,0.014,1.48613e-05,0.000142803,4.36249e-05,0.131566,0.000521992,-0.0289976,0.00106152,0.0102002,0.00311607,9.39759,0.0372851,-2.07125,0.237614,1.36446,-3.01041
42200,0,0.0119964,0,-0.674038,0.0117921,0.014,-8.85359e-05,3.75593e-05,0.000340378,0.134368,-0.00557269,-0.0287252,-0.00632399,0.00268281,0.0243127,9.59771,-0.398049,-2.0518,0.237227,1.36444,-3.01081
42300,0,-0.00646861,0,-0.67401,0.00585028,0.014,2.61252e-05,0.000121822,2.77948e-05,0.13606,-0.011391,-0.0289451,0.00186609,0.00870156,0.00198535,9.71854,-0.813646,-2.06751,0.234691,1.36471,-3.01353
42400,0,0.0060525,0,-0.674077,0.00432291,0.014,4.55799e-05,0.00014477,-0.000164507,0.133539,-0.00641215,-0.0247275,0.0032557,0.0103407,-0.0117505,9.53851,-0.458011,-1.76625,0.23512,1.36448,-3.01304
42500,0,-0.0077727,0,-0.674119,0.000236261,0.014,9.26821e-06,6.69013e-05,-5.23182e-06,0.133215,-0.00233941,-0.024453,0.000662015,0.00477866,-0.000373701,9.51536,-0.1671,-1.74664,0.236584,1.36424,-3.01152
42600,0,-0.00495547,0,-0.674092,-0.00298983,0.014,-4.57636e-05,-0.000107627,0.000219836,0.133552,-0.00748608,-0.0251959,-0.00326883,-0.00768767,0.0157026,9.53945,-0.53472,-1.79971,0.235764,1.36425,-3.0124
42700,0,-0.0151294,0,-0.674117,-0.010798,0.014,-2.14344e-05,-3.2664e-05,6.66136e-06,0.134728,-0.0119494,-0.0274656,-0.00153103,-0.00233314,0.000475811,9.62342,-0.853527,-1.96183,0.234314,1.36447,-3.01394
42800,0,-0.0132634,0,-0.674116,-0.00313139,0.014,1.77476e-05,2.5869e-05,-0.000150139,0.134093,-0.00578211,-0.0254882,0.00126769,0.00184778,-0.0107242,9.57808,-0.413008,-1.82058,0.235016,1.36434,-3.01319
42900,0,0.012773,0,-0.674124,-0.0038243,0.014,-4.30284e-06,-8.45588e-05,5.64611e-05,0.133315,-0.00340658,-0.0252572,-0.000307346,-0.00603991,0.00403294,9.52253,-0.243327,-1.80409,0.236399,1.36414,-3.01174
43000,0,-0.00777384,0,-0.674065,0.00165188,0.014,-3.60666e-05,-0.000126774,0.000134185,0.134056,-0.00854701,-0.0281594,-0.00257618,-0.00905528,0.00958463,9.57545,-0.610501,-2.01138,0.235767,1.36426,-3.01241
43100,0,0.0081032,0,-0.674064,0.00371941,0.014,-1.13781e-05,-5.67142e-05,5.46679e-06,0.135322,-0.00935146,-0.0278094,-0.000812725,-0.00405101,0.000390485,9.66588,-0.667961,-1.98638,0.234744,1.36439,-3.01347
43200,0,0.000972668,0,-0.674092,0.000690749,0.014,2.24269e-05,9.18153e-06,-0.000110918,0.134026,-0.0062508,-0.0267048,0.00160192,0.000655823,-0.0079227,9.57328,-0.446486,-1.90749,0.235292,1.36427,-3.01291
43300,0,0.000834121,0,-0.674095,-0.00746391,0.014,-1.91616e-05,-7.37059e-05,1.82337e-05,0.133179,-0.0040747,-0.0260537,-0.00136868,-0.0052647,0.00130241,9.51282,-0.29105,-1.86098,0.236096,1.36411,-3.01204
43400,0,0.00665133,0,-0.674082,-0.00620104,0.014,-2.72302e-05,-0.000110347,0.000118093,0.134284,-0.00749175,-0.027707,-0.00194501,-0.00788194,0.00843524,9.59169,-0.535125,-1.97907,0.235592,1.36418,-3.0126
43500,0,0.00277573,0,-0.674084,-0.00789605,0.014,2.18252e-05,-2.97874e-05,-6.20608e-05,0.134766,-0.00833816,-0.0287153,0.00155894,-0.00212767,-0.00443291,9.62617,-0.595583,-2.05109,0.234493,1.36435,-3.01377
43600,0,0.00620956,0,-0.674082,0.00172638,0.014,-1.5991e-05,-7.52997e-06,-4.3776e-05,0.133315,-0.00736118,-0.0273592,-0.00114221,-0.000537855,-0.00312686,9.52253,-0.525799,-1.95423,0.234782,1.36426,-3.01343
43700,0,-0.00222607,0,-0.674079,0.0030116,0.014,-1.55056e-05,-5.05448e-05,-5.90717e-06,0.133682,-0.0048068,-0.026512,-0.00110754,-0.00361034,-0.00042194,9.54869,-0.343343,-1.89371,0.235611,1.36418,-3.01254
43800,0,0.00239334,0,-0.674092,-0.000873874,0.014,-7.52993e-06,-6.31896e-05,5.80038e-05,0.133421,-0.00602568,-0.0264176,-0.000537852,-0.00451354,0.00414313,9.53007,-0.430406,-1.88697,0.235639,1.36421,-3.01254
43900,0,-0.00091244,0,-0.674073,-0.00326179,0.014,-1.03664e-05,-6.08081e-05,4.20896e-05,0.134299,-0.00819299,-0.0277231,-0.000740455,-0.00434343,0.0030064,9.59279,-0.585214,-1.98022,0.235068,1.36437,-3.01319
44000,0,-0.00583834,0,-0.674069,0.00232988,0.014,1.47128e-05,-6.57793e-06,-7.16794e-05,0.134575,-0.00670197,-0.0273913,0.00105091,-0.000469852,-0.00511995,9.61248,-0.478712,-1.95652,0.235032,1.36443,-3.01323
44100,0,-0.00926449,0,-0.674069,0.00148423,0.014,8.21515e-07,-4.08854e-05,2.2334e-05,0.133471,-0.0045895,-0.0264818,5.86796e-05,-0.00292039,0.00159529,9.53362,-0.327822,-1.89156,0.23598,1.36428,-3.01225
44200,0,0.00767435,0,-0.674046,0.0016556,0.014,-2.2592e-05,-6.10261e-05,9.47115e-05,0.133846,-0.00721419,-0.0276145,-0.00161371,-0.004359,0.00676511,9.56041,-0.515299,-1.97246,0.235735,1.36433,-3.01247
44300,0,0.00675127,0,-0.674074,0.00637554,0.014,-2.88643e-06,-1.42608e-05,-4.29177e-06,0.134507,-0.00791134,-0.0283139,-0.000206174,-0.00101863,-0.000306555,9.60762,-0.565095,-2.02242,0.23522,1.36447,-3.013
44400,0,0.00137925,0,-0.674092,-0.00244222,0.014,1.01375e-05,2.08486e-08,-5.3991e-05,0.133991,-0.00564589,-0.0272324,0.00072411,1.48918e-06,-0.0038565,9.57078,-0.403278,-1.94517,0.235613,1.36444,-3.0126
44500,0,-0.0112929,0,-0.6741,-0.00343687,0.014,6.6553e-07,-3.60509e-05,3.99201e-05,0.133616,-0.00515516,-0.027224,4.75378e-05,-0.00257506,0.00285144,9.54402,-0.368225,-1.94457,0.236275,1.36438,-3.01191
44600,0,0.0217117,0,-0.674102,-0.00665925,0.014,-9.99647e-06,-5.5047e-05,6.73636e-05,0.134098,-0.00627926,-0.0275587,-0.000714034,-0.00393193,0.00481168,9.57845,-0.448518,-1.96848,0.236193,1.3644,-3.01204
44700,0,0.0059239,0,-0.674069,0.00406958,0.014,1.89865e-06,-1.8832e-05,1.11689e-05,0.134366,-0.00774799,-0.0281673,0.000135618,-0.00134514,0.000797778,9.59756,-0.553428,-2.01195,0.235838,1.36452,-3.01244
44800,0,-0.00234926,0,-0.674073,0.00281044,0.014,8.06278e-06,3.82146e-06,-4.13214e-05,0.13397,-0.00639364,-0.0274426,0.000575913,0.000272961,-0.00295153,9.56928,-0.456688,-1.96019,0.236102,1.36448,-3.01214
44900,0,-0.0104378,0,-0.674084,0.00063114,0.014,-4.65191e-06,-2.95676e-05,2.25198e-05,0.13377,-0.00539477,-0.027045,-0.000332279,-0.00211197,0.00160856,9.55503,-0.385341,-1.93179,0.236462,1.36443,-3.01175
45000,0,0.00578175,0,-0.674095,-0.00428996,0.014,-8.30616e-06,-3.72678e-05,5.24284e-05,0.134132,-0.00668675,-0.0276096,-0.000593297,-0.00266199,0.00374488,9.58086,-0.477625,-1.97211,0.236331,1.36448,-3.01187
45100,0,-0.00542267,0,-0.674087,-0.00971772,0.014,5.71146e-05,6.42775e-05,-3.00071e-05,0.134269,-0.00708808,-0.0299371,0.00407961,0.00459125,-0.00214336,9.59061,-0.506292,-2.13837,0.235953,1.36457,-3.01226
45200,0,-0.00248476,0,-0.674081,0.00022881,0.014,3.34837e-05,4.73083e-05,8.41382e-06,0.132726,-0.00666293,-0.028236,0.0023917,0.00337916,0.000600987,9.48044,-0.475924,-2.01686,0.236495,1.36447,-3.01168
45300,0,0.00787013,0,-0.67407,-0.00254653,0.014,5.20594e-05,-0.00028725,0.000242675,0.133906,-0.00552204,-0.0285149,0.00371853,-0.0205179,0.0173339,9.56473,-0.394432,-2.03678,0.237977,1.36278,-3.01019
45400,0,-0.00407526,0,-0.673193,0.0473239,0.014,-0.000119062,-0.00212127,0.000304988,0.139093,-0.00860637,-0.0632218,-0.00850446,-0.151519,0.0217848,9.93521,-0.614741,-4.51584,0.235871,1.35729,-3.01232
45500,0,0.00418544,0,-0.669268,0.00411428,0.014,-0.000148723,-0.00857034,0.00254218,0.134269,-0.0144982,-0.0390277,-0.010623,-0.612167,0.181584,9.59061,-1.03559,-2.78769,0.231305,1.31075,-3.01657
45600,0,-0.000894342,0,-0.669224,-6.17685e-05,0.014,-4.05557e-05,-0.0105433,0.00192565,0.137747,-0.0254427,-0.0384801,-0.00289684,-0.75309,0.137546,9.83906,-1.81734,-2.74858,0.221683,1.23619,-3.02594
45700,0,-0.0101067,0,-0.669373,0.00527285,0.014,2.66335e-05,-0.00815947,0.00125406,0.12339,0.00710467,-0.0384497,0.0019024,-0.58282,0.0895755,8.81359,0.507477,-2.7464,0.223684,1.17033,-3.02269
45800,0,-0.0154923,0,-0.668622,0.00592851,0.014,-0.000214236,-0.00735606,0.00220427,0.127447,-0.011631,-0.0660423,-0.0153026,-0.525433,0.157448,9.10335,-0.830787,-4.71731,0.221398,1.11817,-3.02466
45900,0,0.0059607,0,-0.668556,0.00470662,0.014,-0.00015501,-0.00787693,0.00151062,0.123685,-0.0228927,-0.0587456,-0.0110722,-0.562638,0.107901,8.83463,-1.6352,-4.19612,0.2177,1.06181,-3.02839
46000,0,-0.0153024,0,-0.667173,-0.00675609,0.014,-3.74973e-05,-0.00846122,0.00141612,0.11862,-0.0185359,-0.0719819,-0.00267838,-0.604373,0.101152,8.47285,-1.32399,-5.14156,0.217176,1.00153,-3.02839
46100,0,0.0192381,0,-0.666771,0.0239776,0.014,-0.000131017,-0.00835896,0.00193434,0.111186,-0.00988566,-0.079179,-0.00935835,-0.597069,0.138167,7.94186,-0.706119,-5.65564,0.217316,0.94171,-3.02724
46200,0,0.0079378,0,-0.666581,0.00247518,0.014,-9.02789e-05,-0.00618457,0.00153452,0.105497,-0.0179319,-0.0733732,-0.00644849,-0.441755,0.109609,7.53548,-1.28085,-5.24094,0.215755,0.886608,-3.02828
46300,0,0.0050096,0,-0.665571,0.0444927,0.014,2.13911e-05,-0.00416841,0.000664624,0.103527,-0.0198022,-0.0844516,0.00152794,-0.297744,0.0474731,7.39477,-1.41444,-6.03226,0.214746,0.852633,-3.02918
46400,0,-0.0193415,0,-0.644545,0.625675,0.014,-8.33534e-05,-0.00375518,0.00094584,0.100188,-0.0146953,-0.0804314,-0.00595381,-0.268227,0.06756,7.15628,-1.04966,-5.7451,0.214916,0.824372,-3.02832
46500,0,-0.00168341,0,-0.49202,2.14361,0.014,-1.65175e-05,-0.00167753,0.000285494,0.102945,-0.0182102,-0.0972707,-0.00117982,-0.119824,0.0203924,7.35322,-1.30073,-6.9479,0.214565,0.810019,-3.02884
46600,0,-0.00632713,0,-0.263293,2.34248,0.014,2.07109e-05,0.000883241,-0.000235186,0.0922109,-0.0137137,-0.0830818,0.00147935,0.0630886,-0.016799,6.5865,-0.979551,-5.93442,0.215477,0.808766,-3.02725
46700,0,0.00698572,0,-0.00715965,2.64281,0.014,-4.9951e-05,0.00430871,-0.000502568,0.0915583,-0.0227683,-0.0806137,-0.00356793,0.307765,-0.0358977,6.53988,-1.62631,-5.75812,0.216248,0.830754,-3.02624
46800,0,-0.00415769,0,0.276981,3.02211,0.014,8.61079e-05,0.00624101,-0.00140168,0.102666,-0.0294797,-0.0873602,0.00615056,0.445786,-0.10012,7.33327,-2.10569,-6.24002,0.216446,0.871691,-3.02651
46900,0,-0.00201746,0,0.585295,3.07641,0.014,0.000174105,0.00779411,-0.0018643,0.106928,-0.0143799,-0.0816998,0.0124361,0.556722,-0.133164,7.63768,-1.02714,-5.8357,0.219044,0.922908,-3.02408
47001,0,-0.00466707,0,0.89271,3.29058,0.014,0.000117614,0.00707402,-0.001216,0.113975,-0.0216543,-0.0864686,0.00840097,0.505287,-0.0868571,8.14107,-1.54673,-6.17633,0.220879,0.98098,-3.02278
47100,0,0.00408144,0,1.21238,3.07789,0.014,0.000351856,0.00541662,-0.00117899,0.113399,-0.0151,-0.072379,0.0251326,0.386902,-0.0842137,8.09994,-1.07857,-5.16993,0.223917,1.02135,-3.0192
47200,0,-0.0102604,0,1.52169,3.01029,0.014,0.000108054,0.00482756,-0.000762263,0.12026,-0.0116273,-0.0732304,0.00771816,0.344826,-0.0544473,8.58998,-0.830524,-5.23075,0.226949,1.05529,-3.01596
47300,0,-0.0124961,0,1.80976,2.89079,0.014,9.2807e-06,0.0031411,-0.000517572,0.121809,-0.0232184,-0.062572,0.000662907,0.224364,-0.0369695,8.70061,-1.65846,-4.46943,0.226947,1.08509,-3.01649
47400,0,-0.00818441,0,2.06036,2.49479,0.014,7.54803e-05,0.00320285,-0.000858985,0.123569,-0.0145327,-0.0558094,0.00539145,0.228775,-0.0613561,8.82636,-1.03805,-3.98639,0.229139,1.1079,-3.01377
47500,0,-0.00466035,0,2.28998,2.48678,0.014,-8.81597e-05,0.00159061,-0.000181878,0.127037,-0.00634378,-0.0743442,-0.00629712,0.113615,-0.0129913,9.07406,-0.453127,-5.3103,0.232907,1.12655,-3.00921
47600,0,-0.000579383,0,2.54051,2.58608,0.014,-0.000379976,-0.00136956,0.000756142,0.126639,-0.0195493,-0.0665268,-0.0271411,-0.0978257,0.0540102,9.04566,-1.39638,-4.75191,0.232017,1.12561,-3.01022
47700,0,-0.00647328,0,2.76094,2.03647,0.014,-1.87448e-05,-0.000722189,-5.58174e-05,0.121512,-0.0242589,-0.0610318,-0.00133891,-0.051585,-0.00398695,8.67941,-1.73278,-4.35941,0.231077,1.11726,-3.01095
47800,0,-0.0113302,0,2.93332,1.37992,0.014,8.67705e-05,0.00159305,-0.000496979,0.116039,-0.00592115,-0.0365859,0.00619789,0.113789,-0.0354985,8.28853,-0.422939,-2.61328,0.233605,1.12185,-3.00727
47900,0,0.0247357,0,3.06784,1.23363,0.014,-0.00016679,0.00396446,-0.000406732,0.121156,-0.00621452,-0.0327436,-0.0119136,0.283176,-0.0290523,8.65401,-0.443894,-2.33883,0.236305,1.14421,-3.00425
48000,0,-0.00821,0,3.17791,0.999029,0.014,-3.56531e-05,0.00569759,-0.000700989,0.126953,-0.0109816,-0.0461976,-0.00254665,0.40697,-0.0500706,9.06809,-0.784402,-3.29983,0.240437,1.18021,-3.00053
48100,0,0.000133814,0,3.30775,1.77664,0.014,-0.000770173,0.00223911,0.000484515,0.12448,-0.0172246,-0.0395651,-0.0550123,0.159937,0.0346082,8.89143,-1.23033,-2.82608,0.247592,1.20909,-2.99253
48200,0,0.0131713,0,3.43985,1.08484,0.014,0.000262794,0.00292591,-0.000419237,0.13446,-0.0367798,-0.0712573,0.018771,0.208993,-0.0299455,9.60425,-2.62713,-5.08981,0.247544,1.22655,-2.99409
48300,0,-0.00281276,0,3.55763,1.17295,0.014,-3.98988e-05,0.00175913,-0.000460697,0.130089,-0.0229121,-0.0292886,-0.00284992,0.125652,-0.0329069,9.29204,-1.63658,-2.09204,0.249803,1.24069,-2.99118
48400,0,0.000145007,0,3.63161,0.849197,0.014,0.000456015,0.00157224,-0.000799795,0.130446,-0.0102378,-0.0233218,0.0325725,0.112303,-0.0571282,9.31757,-0.731271,-1.66584,0.251704,1.24974,-2.98935
48500,0,-0.00201403,0,3.70684,0.497246,0.014,2.00352e-05,0.000385826,-0.000372273,0.129945,0.000610529,-0.0377855,0.00143109,0.027559,-0.0265909,9.28178,0.0436092,-2.69897,0.254936,1.25832,-2.98557
48600,0,0.0107254,0,3.73996,0.335196,0.014,0.000151546,0.000722003,-0.000235897,0.128287,0.00200198,-0.034663,0.0108247,0.0515717,-0.0168498,9.16334,0.142999,-2.47593,0.25597,1.26272,-2.98469
48700,0,-0.00307075,0,3.78757,0.737579,0.014,4.94963e-05,0.00131824,-0.000326275,0.129666,-0.000383097,-0.026032,0.00353545,0.0941602,-0.0233053,9.26188,-0.0273641,-1.85943,0.256653,1.26866,-2.98401
48800,0,0.0228792,0,3.82326,-0.011897,0.014,9.51701e-05,0.000127663,-7.13636e-05,0.130019,-0.0117696,-0.0508179,0.00679786,0.00911877,-0.0050974,9.28705,-0.840686,-3.62985,0.257693,1.27324,-2.98322
48900,0,-0.00332717,0,3.82273,-0.00122029,0.014,-7.86674e-05,-0.000106565,0.000110035,0.130414,-0.00983738,-0.0442809,-0.0056191,-0.0076118,0.00785964,9.31532,-0.70267,-3.16292,0.258165,1.27297,-2.98258
49000,0,0.00147649,0,3.82265,0.00648361,0.014,-6.16848e-05,-8.6068e-05,8.59016e-05,0.130435,-0.00851773,-0.036725,-0.00440606,-0.00614772,0.00613583,9.31676,-0.608409,-2.62321,0.257942,1.27282,-2.98279
49100,0,-0.00424919,0,3.82266,-0.000475236,0.014,2.65907e-06,3.09512e-05,4.7393e-05,0.130923,-0.00995966,-0.0372945,0.000189934,0.0022108,0.00338522,9.35168,-0.711404,-2.66389,0.257442,1.27288,-2.98345
49200,0,0.00207769,0,3.82265,-0.00911792,0.014,-1.94207e-05,8.14486e-06,3.41727e-05,0.130902,-0.011323,-0.0397502,-0.00138719,0.000581776,0.00244091,9.35012,-0.808786,-2.8393,0.257229,1.27288,-2.98369
49300,0,-0.0152529,0,3.82266,-0.00255396,0.014,-1.86456e-05,-6.1983e-05,5.44355e-05,0.131091,-0.0108936,-0.0394489,-0.00133183,-0.00442735,0.00388825,9.36363,-0.778112,-2.81778,0.256942,1.27275,-2.98399
49400,0,0.0160252,0,3.82267,0.0045241,0.014,-5.09881e-06,-4.74981e-05,1.60493e-05,0.130861,-0.00938337,-0.0381219,-0.0003642,-0.00339272,0.00114638,9.34722,-0.670241,-2.72299,0.256406,1.27259,-2.98461
49500,0,-0.0136791,0,3.82264,-0.000415644,0.014,-3.03328e-05,2.78533e-05,3.68865e-05,0.13118,-0.0101196,-0.0375122,-0.00216663,0.00198952,0.00263475,9.36999,-0.722827,-2.67944,0.256319,1.27259,-2.9847
49600,0,-0.00246565,0,3.82267,0.00721375,0.014,1.35002e-05,1.49014e-05,-1.65504e-05,0.130718,-0.0116867,-0.0386666,0.000964302,0.00106439,-0.00118217,9.33703,-0.834762,-2.7619,0.256509,1.27265,-2.98448
49700,0,0.00175025,0,3.82268,0.00688593,0.014,-2.29205e-06,-3.18459e-05,3.37937e-05,0.130684,-0.0119448,-0.0393611,-0.000163718,-0.00227471,0.00241384,9.33456,-0.853203,-2.81151,0.256512,1.27261,-2.98445
49800,0,0.00496611,0,3.82266,0.00508289,0.014,-2.17865e-05,-5.70377e-05,1.24859e-05,0.131016,-0.0100933,-0.0386882,-0.00155618,-0.00407412,0.000891848,9.35828,-0.720948,-2.76344,0.256683,1.27259,-2.9842
49900,0,-0.00404481,0,3.82267,0.00351826,0.014,-1.61724e-05,-1.21894e-05,1.22536e-05,0.130619,-0.0105969,-0.0382514,-0.00115517,-0.000870671,0.00087526,9.32993,-0.756922,-2.73224,0.256713,1.27262,-2.98419
50000,0,0.00607275,0,3.82265,-0.00800778,0.014,3.43283e-05,-2.25213e-05,-1.49747e-05,0.130822,-0.0111775,-0.038982,0.00245202,-0.00160866,-0.00106962,9.34445,-0.798394,-2.78443,0.256477,1.27264,-2.98453
50100,0,-0.00591199,0,3.82266,-0.00285198,0.014,1.87788e-05,-4.33422e-05,-3.11852e-05,0.130827,-0.0101717,-0.0385561,0.00134134,-0.00309587,-0.00222751,9.34477,-0.726546,-2.75401,0.256275,1.27259,-2.98479
50200,0,0.00810513,0,3.82268,0.00642399,0.014,7.64889e-06,-2.32274e-05,-2.98256e-05,0.130915,-0.00999491,-0.0387483,0.000546349,-0.0016591,-0.0021304,9.35105,-0.713922,-2.76774,0.256103,1.27254,-2.98499
50300,0,0.00109562,0,3.82267,0.00848035,0.014,4.61765e-06,-6.33806e-07,-8.23524e-06,0.13077,-0.00995878,-0.0391033,0.000329832,-4.52719e-05,-0.000588232,9.34069,-0.711341,-2.7931,0.256242,1.27259,-2.98482
50400,0,0.00690996,0,3.82268,0.0045688,0.014,5.99459e-05,-0.000157571,-5.79689e-05,0.131106,-0.0116291,-0.041031,0.00428185,-0.0112551,-0.00414063,9.3647,-0.830652,-2.93078,0.25539,1.27216,-2.98591
50500,0,-0.0132186,0,3.82269,-0.00635375,0.014,0.000117187,-0.000748915,-3.6065e-05,0.131328,-0.0113041,-0.0411823,0.00837048,-0.0534939,-0.00257607,9.38057,-0.807436,-2.94159,0.252762,1.26839,-2.989
50600,0,0.00649417,0,3.82269,0.00253479,0.014,9.25218e-05,-0.00153694,0.000122895,0.131626,-0.0144337,-0.0408896,0.0066087,-0.109781,0.00877821,9.40183,-1.03098,-2.92069,0.247528,1.25897,-2.99495
50700,0,-0.00181845,0,3.82268,-0.0018834,0.014,-6.29196e-05,-0.00220331,0.000444039,0.129207,-0.0106602,-0.0398088,-0.00449426,-0.157379,0.0317171,9.22904,-0.761443,-2.84349,0.245761,1.24466,-2.99643
50800,0,0.0046117,0,3.8227,0.00386844,0.014,-6.64369e-05,-0.00156201,0.000361978,0.128141,-0.00822845,-0.0362384,-0.00474549,-0.111572,0.0258556,9.15296,-0.587746,-2.58846,0.244109,1.2303,-2.9978
50900,0,-0.000824712,0,3.82274,0.00288496,0.014,-3.96407e-05,-0.000297067,8.11523e-05,0.128256,-0.0119028,-0.0432676,-0.00283148,-0.0212191,0.00579659,9.16112,-0.850202,-3.09054,0.243114,1.22564,-2.99881
51000,0,-0.0192273,0,3.82279,0.000672135,0.014,2.7939e-05,-0.000582083,0.000136621,0.127988,-0.0129109,-0.0455663,0.00199564,-0.0415774,0.00975864,9.14201,-0.922209,-3.25474,0.242763,1.22304,-2.99916
51100,0,0.00389342,0,3.82279,-0.00390997,0.014,1.626e-06,-0.000373433,6.07315e-05,0.127623,-0.0119134,-0.0454024,0.000116143,-0.0266738,0.00433796,9.11591,-0.850954,-3.24303,0.242485,1.22011,-2.99938
51200,0,0.00743272,0,3.8228,-0.00260611,0.014,7.25459e-06,-5.7518e-05,1.69575e-06,0.128396,-0.0119995,-0.0493744,0.000518185,-0.00410843,0.000121125,9.17111,-0.85711,-3.52674,0.242491,1.21955,-2.99937
51300,0,0.00512828,0,3.82281,-0.00216653,0.014,-8.10815e-07,-0.000152766,4.54341e-05,0.12841,-0.0115912,-0.0492383,-5.79154e-05,-0.0109119,0.00324529,9.17218,-0.827941,-3.51702,0.242481,1.2186,-2.99937
51400,0,0.013003,0,3.82279,-0.00422289,0.014,-1.74977e-05,-0.000159998,5.71034e-05,0.128387,-0.0111473,-0.0457846,-0.00124984,-0.0114284,0.00407881,9.1705,-0.796238,-3.27033,0.242202,1.21702,-2.9996
51500,0,0.0162295,0,3.82278,-0.00854422,0.014,-5.5791e-06,-0.000137486,5.05306e-05,0.128215,-0.0127503,-0.0464904,-0.000723921,-0.00647411,0.00144313,9.21087,-0.858649,-3.44802,0.242055,1.21675,-2.99981
51600,0,0.00227345,0,3.82284,0.00302653,0.014,-5.97997e-06,-0.000526254,9.72512e-05,0.128881,-0.0135273,-0.0509753,-0.00042714,-0.0375896,0.00694651,9.20582,-0.966237,-3.6411,0.241913,1.21552,-3.00001
51700,0,-0.00242657,0,3.82285,0.00810037,0.014,1.41403e-05,-0.000364853,3.72586e-05,0.128454,-0.0113259,-0.0498377,0.00101002,-0.0260609,0.00266133,9.17529,-0.808994,-3.55984,0.241682,1.21262,-3.00017
51800,0,-0.0123661,0,3.82284,-8.78174e-05,0.014,6.82552e-07,-0.000281277,5.49233e-05,0.127902,-0.010452,-0.0492456,4.87537e-05,-0.0200912,0.00392309,9.13583,-0.746571,-3.51755,0.241563,1.21033,-3.00019
51900,0,0.00969061,0,3.82288,0.0124813,0.014,-4.51926e-05,-0.000807659,0.000234164,0.12844,-0.0121299,-0.0495481,-0.00322804,-0.0576899,0.016726,9.17428,-0.866422,-3.53915,0.240975,1.20599,-3.00073
52000,0,-0.0201236,0,3.8229,-0.000467796,0.014,-4.47674e-05,-0.00144647,0.000320267,0.129179,-0.0126058,-0.0484496,-0.00319767,-0.103319,0.0228762,9.2271,-0.900416,-3.46069,0.239863,1.19742,-3.00171
52100,0,-0.0115467,0,3.82287,-0.0107198,0.014,9.6578e-06,-0.00109708,0.000152226,0.127566,-0.00971216,-0.0440677,0.000689843,-0.0783627,0.0108733,9.11189,-0.693726,-3.14769,0.239085,1.18827,-3.00235
52200,0,0.00929881,0,3.82287,-0.0010266,0.014,2.2712e-05,-8.42643e-05,-1.31175e-05,0.126273,-0.00873097,-0.0452676,0.00162229,-0.00601888,-0.000936968,9.01951,-0.623641,-3.2334,0.238823,1.18454,-3.0025
52300,0,-0.0102312,0,3.82292,0.00282535,0.014,-1.6034e-05,7.57781e-05,4.30031e-05,0.127543,-0.0113436,-0.0511595,-0.00114529,0.00541272,0.00307165,9.11021,-0.810255,-3.65425,0.238724,1.18517,-3.0027
52400,0,-0.0150325,0,3.82294,0.00161836,0.014,-1.38475e-05,-1.42338e-05,3.35893e-05,0.127444,-0.0123186,-0.0478973,-0.000989105,-0.0010167,0.00239923,9.10315,-0.879903,-3.42124,0.238499,1.18489,-3.00295
52500,0,0.00422873,0,3.82297,0.00664751,0.014,2.88349e-05,9.63206e-05,-4.99873e-05,0.127502,-0.0125855,-0.050142,0.00205963,0.00688004,-0.00357052,9.10726,-0.898967,-3.58157,0.238472,1.18547,-3.003
52600,0,0.00116864,0,3.82298,0.00221441,0.014,4.66174e-05,0.000253291,-9.58861e-05,0.127117,-0.0114189,-0.0521359,0.00332981,0.0180922,-0.006849,9.07979,-0.815636,-3.72399,0.23878,1.18687,-3.00271
52700,0,-0.2186,-0.234583,3.56187,-4.47539,0.014,-0.00017107,-0.00892726,0.00165507,0.125881,-0.0207767,-0.0365519,-0.0122193,-0.637661,0.118219,8.99153,-1.48405,-2.61085,0.234181,1.15468,-3.0076
52800,0,-0.162144,-0.174593,3.13358,-4.31022,0.014,0.000183811,-0.0082024,0.00112609,0.125508,-0.011994,-0.0671952,0.0131294,-0.585886,0.0804352,8.96488,-0.856717,-4.79965,0.230176,1.10216,-3.01145
52900,0,-0.183348,-0.174885,2.69722,-4.52248,0.014,-6.7059e-06,-0.00747633,0.00127555,0.116986,-0.00687476,-0.0659434,-0.000478993,-0.534024,0.0911105,8.35613,-0.491054,-4.71025,0.227315,1.04367,-3.01386
53000,0,-0.193957,-0.185935,2.25088,-4.51023,0.014,-0.000253248,-0.00747783,0.00181539,0.116719,-0.0123456,-0.0749336,-0.0180891,-0.534131,0.129671,8.33704,-0.881827,-5.3524,0.224232,0.991538,-3.01688
53100,0,-0.22281,-0.243372,1.80178,-4.75737,0.014,-9.16745e-05,-0.00752965,0.00153778,0.114898,-0.0246523,-0.0753701,-0.00654818,-0.537832,0.109841,8.20697,-1.76088,-5.38358,0.220847,0.938233,-3.0211
53200,0,-0.216308,-0.224621,1.34731,-4.32254,0.014,-5.75026e-05,-0.00731834,0.00117569,0.108274,-0.0161447,-0.0821101,-0.00410733,-0.522739,0.0839776,7.73383,-1.15319,-5.86501,0.219149,0.886018,-3.02227
53300,0,-0.151792,-0.189749,0.890655,-4.55404,0.014,-5.90423e-05,-0.00735944,0.00151444,0.10338,-0.015766,-0.0928332,-0.00421731,-0.525674,0.108174,7.3843,-1.12614,-6.63094,0.217461,0.830691,-3.02423
53400,0,-0.239541,-0.251251,0.42909,-4.80762,0.014,-0.000168583,-0.00748432,0.00164944,0.101088,-0.0217528,-0.0941638,-0.0120417,-0.534594,0.117817,7.22056,-1.55377,-6.72598,0.215609,0.778498,-3.02606
53500,0,-0.25945,-0.254633,-0.0322469,-4.44545,0.014,1.40725e-05,-0.00729718,0.00122764,0.0948913,-0.0211503,-0.10266,0.00100518,-0.521227,0.0876887,6.77795,-1.51073,-7.33284,0.214075,0.726593,-3.02786
53600,0,-0.217269,-0.227227,-0.499243,-4.74925,0.014,-0.000171286,-0.00739579,0.00155276,0.0858806,-0.0184121,-0.100951,-0.0122347,-0.52827,0.110911,6.13433,-1.31515,-7.21082,0.213153,0.669397,-3.0284
53700,0,-0.276707,-0.268911,-0.969165,-4.59392,0.014,-2.57316e-05,-0.00746651,0.00146012,0.083094,-0.0259887,-0.116805,-0.00183797,-0.533322,0.104294,5.93528,-1.85634,-8.34319,0.211755,0.618157,-3.03013
53800,0,-0.257697,-0.272986,-1.44479,-5.07441,0.014,-7.81496e-05,-0.00811956,0.00159508,0.0773691,-0.0247925,-0.116402,-0.00558211,-0.579968,0.113935,5.52637,-1.77089,-8.31443,0.210897,0.562265,-3.03098
53900,0,-0.268165,-0.240781,-1.92106,-4.68935,0.014,-5.3974e-05,-0.00793026,0.00148821,0.0687291,-0.019661,-0.113863,-0.00385529,-0.566447,0.106301,4.90922,-1.40436,-8.13304,0.209871,0.504592,-3.03151
54000,0,-0.253783,-0.26725,-2.39807,-4.66516,0.014,-0.000136331,-0.00798032,0.00176692,0.0631668,-0.0266008,-0.120441,-0.00973795,-0.570023,0.126209,4.51191,-1.90006,-8.60294,0.20899,0.444348,-3.03256
54100,0,-0.259077,-0.253787,-2.8814,-4.95483,0.014,-8.01487e-05,-0.00811611,0.0015469,0.0564247,-0.0264441,-0.123885,-0.00572491,-0.579722,0.110493,4.03034,-1.88886,-8.84896,0.207977,0.386677,-3.03332
54200,0,-0.194758,-0.219628,-3.36684,-4.94344,0.014,-8.00329e-05,-0.0081521,0.00159774,0.0469975,-0.0247711,-0.125398,-0.00571663,-0.582293,0.114124,3.35697,-1.76936,-8.957,0.20751,0.328776,-3.03376
54300,0,-0.25575,-0.25039,-3.85313,-4.78778,0.014,-7.1861e-05,-0.00813038,0.00168908,0.0399579,-0.0251715,-0.12678,-0.00513293,-0.580741,0.120649,2.85414,-1.79796,-9.05575,0.20677,0.271053,-3.03396
54400,0,-0.298643,-0.284296,-4.3407,-4.82181,0.014,-5.06948e-05,-0.00847398,0.00190013,0.0314219,-0.0280513,-0.131577,-0.00362106,-0.605284,0.135724,2.24442,-2.00366,-9.39838,0.205877,0.207024,-3.0349
54500,0,-0.285253,-0.29394,-4.83247,-4.94914,0.014,-5.1227e-05,-0.00772149,0.0015536,0.0218201,-0.0270107,-0.125279,-0.00365907,-0.551535,0.110972,1.55858,-1.92934,-8.9485,0.205229,0.148709,-3.03508
54600,0,-0.263519,-0.276071,-5.33106,-5.08013,0.014,-1.07307e-05,-0.00554062,0.000976216,0.0118054,-0.023456,-0.12142,-0.000766477,-0.395759,0.0697297,0.843243,-1.67543,-8.67285,0.204958,0.0991994,-3.03532
54700,0,-0.267248,-0.291823,-5.82546,-5.04837,0.014,9.78504e-05,-0.00535525,0.00128506,0.0106148,-0.0281361,-0.129777,0.00698932,-0.382518,0.09179,0.758198,-2.00972,-9.26978,0.204706,0.0613444,-3.03548
54800,0,-0.0770413,-0.0444022,-6.21026,-1.71725,0.014,6.12024e-05,-0.00257041,0.00153773,0.000492096,-0.0258759,-0.0769265,0.0043716,-0.183601,0.109838,0.0351497,-1.84828,-5.49475,0.204882,0.0281242,-3.03455
54900,0,-0.210841,-0.202507,-6.25579,0.0710979,0.014,0.000903001,0.00211977,8.98096e-06,0.0194483,-0.0493939,-0.163283,0.0645001,0.151412,0.000641497,1.38916,-3.52814,-11.6631,0.205478,0.0359547,-3.03611
55000,0,-0.207442,-0.193584,-6.25761,0.0273034,0.014,-0.000178709,0.000257524,-0.000882501,0.00550492,-0.0335699,-0.155051,-0.0127649,0.0183946,-0.0630358,0.393208,-2.39785,-11.0751,0.206399,0.0360857,-3.03515
55100,0,-0.174711,-0.186276,-6.2577,0.00691117,0.014,4.2687e-05,0.000136153,-0.000236829,0.00619683,-0.0451299,-0.141091,0.00304907,0.00972521,-0.0169164,0.44263,-3.22356,-10.0779,0.206604,0.0360885,-3.03476
55200,0,-0.179887,-0.181362,-6.25772,-0.00559091,0.014,-0.000109726,0.000117847,-0.000341208,0.00494634,-0.034071,-0.133345,-0.00783759,0.00841765,-0.024372,0.35331,-2.43364,-9.52462,0.207446,0.0375754,-3.03382
55300,0,-0.167434,-0.174979,-6.25766,-0.00123231,0.014,3.28395e-05,0.000158064,-8.80004e-05,0.00250331,-0.0271686,-0.133214,0.00234568,0.0112903,-0.00628574,0.178808,-1.94061,-9.51531,0.208113,0.0385926,-3.03306
55400,0,-0.168939,-0.169857,-6.25752,0.00445993,0.014,-1.13154e-05,1.60484e-05,1.06764e-05,0.00366927,-0.0251942,-0.12925,-0.000808241,0.00114631,0.000762602,0.262091,-1.79959,-9.23213,0.207958,0.0385672,-3.03322
55500,0,-0.171407,-0.167493,-6.25736,-0.00329612,0.014,-1.14438e-05,2.68716e-06,-2.82386e-05,0.00403426,-0.0246644,-0.131556,-0.000817412,0.00019194,-0.00201704,0.288161,-1.76174,-9.39686,0.208064,0.0387017,-3.03318
55600,0,-0.183267,-0.161981,-6.25725,0.00146481,0.014,2.47672e-05,7.82409e-05,2.63841e-05,0.0042968,-0.025779,-0.132135,0.00176908,0.00558863,0.00188458,0.306914,-1.84136,-9.43822,0.207941,0.0386059,-3.03332
55700,0,-0.152151,-0.158867,-6.25694,-0.00531522,0.014,1.48657e-05,2.22433e-05,-5.07461e-06,0.00418967,-0.0259167,-0.134001,0.00106184,0.00158881,-0.000362472,0.299262,-1.85119,-9.57152,0.208025,0.0387463,-3.03327
55800,0,-0.152174,-0.155268,-6.25673,0.00717196,0.014,2.14027e-05,0.000145767,-6.39644e-05,0.00383913,-0.0287596,-0.134353,0.00152876,0.0104119,-0.00456889,0.274223,-2.05426,-9.59664,0.208203,0.0393142,-3.03328
55900,0,-0.161224,-0.151321,-6.25659,0.00353607,0.014,-0.000316665,0.00214591,-0.000541854,0.0103207,-0.0275143,-0.136114,-0.0226189,0.153279,-0.0387038,0.737194,-1.96531,-9.72245,0.206721,0.0493299,-3.0347
56000,0,-0.16074,-0.154398,-6.25462,-0.00436154,0.014,-0.0003808,-0.000576917,0.000161695,0.0069488,-0.0206521,-0.123561,-0.0272,-0.0412084,0.0115496,0.496343,-1.47515,-8.82579,0.207041,0.0536579,-3.03423
56100,0,-0.147884,-0.150039,-6.25459,0.00691863,0.014,-8.03424e-05,-0.000203503,0.000278361,0.00536849,-0.0224904,-0.129925,-0.00573874,-0.0145359,0.0198829,0.383464,-1.60646,-9.28038,0.206342,0.0530674,-3.03479
56200,0,-0.147298,-0.147795,-6.25456,-0.00556854,0.014,-0.000132928,-0.000279556,9.49128e-05,0.00608183,-0.026567,-0.131825,-0.00949482,-0.0199682,0.00677948,0.434416,-1.89764,-9.41608,0.205676,0.0524128,-3.03557
56300,0,-0.14452,-0.145816,-6.25442,-0.000770371,0.014,7.53922e-05,-0.00062914,0.000343876,0.00886666,-0.0322527,-0.142005,0.00538515,-0.0449385,0.0245626,0.633332,-2.30376,-10.1432,0.204904,0.0495929,-3.03621
56400,0,-0.152708,-0.143906,-6.25442,0.00326039,0.014,-6.16987e-05,-0.000870325,0.000180788,0.00571619,-0.028274,-0.13523,-0.00440705,-0.062166,0.0129134,0.408298,-2.01957,-9.65925,0.205237,0.0424824,-3.03572
56500,0,-0.124081,-0.138863,-6.25439,0.000265258,0.014,2.47342e-05,-0.00109798,0.000324563,0.00358957,-0.0259499,-0.132898,0.00176673,-0.0784274,0.0231831,0.256397,-1.85356,-9.49269,0.20557,0.0351915,-3.03525
56600,0,-0.137863,-0.145693,-6.25322,0.0124917,0.014,-2.64955e-05,-0.000372773,0.000186346,0.00634977,-0.0388993,-0.134209,-0.00189253,-0.0266266,0.0133104,0.453555,-2.77852,-9.58638,0.205116,0.0345451,-3.03595
56700,0,-0.123745,-0.139502,-6.2532,-0.00295339,0.014,9.18878e-05,-5.56281e-06,0.000192148,0.00643633,-0.0360629,-0.13328,0.00656341,-0.000397344,0.0137248,0.459738,-2.57592,-9.52002,0.206205,0.0357281,-3.03491
56800,0,-0.157277,-0.137943,-6.25322,-0.00576972,0.014,4.7439e-05,4.44835e-05,9.89361e-05,0.00669818,-0.0340861,-0.133454,0.0033885,0.00317739,0.00706686,0.478441,-2.43472,-9.53244,0.206386,0.0359833,-3.03466
56900,0,-0.144616,-0.136455,-6.25323,-0.0126317,0.014,-1.45991e-05,-3.3335e-05,-4.26008e-05,0.00564004,-0.034753,-0.133071,-0.0010428,-0.00238107,-0.00304291,0.40286,-2.48236,-9.50507,0.206219,0.0358557,-3.03488
57000,0,-0.126926,-0.132169,-6.25316,0.00352862,0.014,1.64499e-05,7.98774e-05,-3.76439e-05,0.00441602,-0.0321988,-0.134229,0.00117499,0.00570553,-0.00268885,0.31543,-2.29992,-9.58777,0.206495,0.0361936,-3.03459
57100,0,-0.134719,-0.131009,-6.25303,-0.00349728,0.014,-3.52383e-05,-4.48351e-05,-4.70984e-05,0.0050257,-0.0295942,-0.13424,-0.00251702,-0.00320251,-0.00336417,0.358979,-2.11387,-9.58858,0.206689,0.0364743,-3.03445
57200,0,-0.139123,-0.131671,-6.25281,-0.00567286,0.014,-8.97466e-05,-0.000157556,-0.000117135,0.00477571,-0.0282422,-0.134221,-0.00641047,-0.011254,-0.00836677,0.341122,-2.0173,-9.58724,0.206543,0.0363286,-3.03454
57300,0,-0.133627,-0.128818,-6.25264,0.0103608,0.014,1.05588e-05,-5.40885e-06,-1.7944e-05,0.00441543,-0.0291974,-0.133251,0.000754198,-0.000386346,-0.00128171,0.315388,-2.08553,-9.5179,0.20651,0.0362265,-3.0346
57400,0,-0.136142,-0.127359,-6.25254,0.0013605,0.014,3.51621e-06,1.73705e-05,-5.58134e-06,0.00459775,-0.027595,-0.135008,0.000251158,0.00124075,-0.000398667,0.32841,-1.97107,-9.64341,0.206838,0.036693,-3.03425
57500,0,-0.129534,-0.12824,-6.25224,0.00191184,0.014,-1.78022e-06,-1.98705e-05,8.09353e-06,0.00434368,-0.0273764,-0.135487,-0.000127159,-0.00141932,0.000578109,0.310262,-1.95545,-9.67762,0.206951,0.0368445,-3.03418
57600,0,-0.127039,-0.124847,-6.25217,0.000481333,0.014,4.72877e-05,1.5498e-05,5.24556e-05,0.00434757,-0.0280296,-0.134305,0.00337769,0.001107,0.00374683,0.31054,-2.00211,-9.59321,0.207021,0.0368408,-3.03416
57700,0,-0.122934,-0.126849,-6.25189,0.00380429,0.014,0.000107209,8.66972e-05,7.547e-05,0.0056823,-0.0301112,-0.134209,0.00765775,0.00619265,0.00539071,0.405878,-2.1508,-9.58634,0.207226,0.037498,-3.03425
57800,0,-0.125783,-0.124813,-6.25165,-0.00424978,0.014,1.3268e-05,4.54984e-05,5.65092e-05,0.00523726,-0.030583,-0.13494,0.000947715,0.00324988,0.00403637,0.37409,-2.1845,-9.63854,0.207231,0.0374846,-3.03427
