timestamp,motor_commanded_torque,motor_encoder_torque,motor_encoder_torque_target,motor_encoder_angle,motor_encoder_velocity,imu_dt,imu_dthetax,imu_dthetay,imu_dthetaz,imu_dvelx,imu_dvely,imu_dvelz,imu_ang_velx,imu_ang_vely,imu_ang_velz,imu_lin_accelx,imu_lin_accely,imu_lin_accelz,ins_theta,ins_phi,ins_psi
0,0,0,0,0,0,0,0,0,0,0,0,0,0,0,0,0,0,0,0,0,0
100,0,-0.0507621,-0.0472495,4.02927e-05,-0.00181984,0.014,-4.82632e-06,-4.62289e-05,3.65441e-05,0.135993,-0.00465611,-0.0169023,-0.000344737,-0.00330206,0.00261029,9.71378,-0.332579,-1.20731,0.258246,1.43967,-2.98753
200,0,-0.0498185,-0.0465592,2.99215e-05,-0.0058953,0.014,3.80773e-06,-1.60852e-05,2.84962e-05,0.136,-0.00544724,-0.017481,0.000271981,-0.00114894,0.00203544,9.71427,-0.389088,-1.24864,0.257893,1.43973,-2.98791
300,0,-0.0637434,-0.0484338,4.09484e-05,0.0050049,0.014,2.41865e-05,2.49431e-05,-2.47011e-05,0.135793,-0.00478747,-0.0169021,0.00172761,0.00178165,-0.00176436,9.69953,-0.341962,-1.20729,0.257813,1.43974,-2.98803
400,0,-0.0531152,-0.0486998,4.82202e-05,0.00629385,0.014,5.19211e-06,-3.02548e-05,2.02669e-05,0.135554,-0.00415228,-0.0167635,0.000370865,-0.00216106,0.00144763,9.68245,-0.296591,-1.19739,0.258433,1.43967,-2.98739
500,0,-0.0341588,-0.0472465,3.32594e-05,-0.00228178,0.014,-1.71008e-05,-5.26226e-06,2.01428e-05,0.135901,-0.00463029,-0.0173039,-0.00122148,-0.000375876,0.00143877,9.70722,-0.330735,-1.23599,0.258261,1.43973,-2.98759
600,0,-0.0569692,-0.046295,1.58548e-05,-0.00778031,0.014,-1.45677e-06,2.9808e-07,1.15005e-05,0.135929,-0.0045472,-0.0169554,-0.000104055,2.12914e-05,0.000821468,9.70924,-0.3248,-1.2111,0.258436,1.43974,-2.98741
700,0,-0.0431935,-0.0466702,1.40667e-05,-0.00561219,0.014,2.85684e-06,-1.97975e-05,9.31663e-06,0.135768,-0.0048091,-0.016978,0.00020406,-0.00141411,0.000665474,9.69773,-0.343507,-1.21272,0.258348,1.43972,-2.98751
800,0,-0.0452616,-0.0483111,3.79086e-05,0.00361163,0.014,-5.45121e-06,2.72964e-06,2.5233e-07,0.135721,-0.00466454,-0.0170232,-0.000389372,0.000194974,1.80236e-05,9.69438,-0.333182,-1.21594,0.258151,1.43975,-2.9877
900,0,-0.0491285,-0.048252,4.25577e-05,0.00300813,0.014,6.43499e-06,-1.45288e-05,3.07233e-05,0.135632,-0.00423982,-0.0165476,0.000459642,-0.00103777,0.00219452,9.68801,-0.302844,-1.18197,0.258802,1.43962,-2.98707
1000,0,-0.0480394,-0.0483311,3.68953e-05,0.00347006,0.014,-1.29476e-05,-3.17775e-05,3.27168e-05,0.135774,-0.00486712,-0.0169455,-0.000924825,-0.00226982,0.00233692,9.69814,-0.347651,-1.21039,0.258626,1.43965,-2.98723
1100,0,-0.0393085,-0.0476691,3.55244e-05,-0.000627767,0.014,1.62096e-05,-3.0992e-06,-1.18129e-05,0.135984,-0.00513799,-0.0170857,0.00115783,-0.000221372,-0.000843781,9.71314,-0.366999,-1.2204,0.258113,1.43971,-2.98778
1200,0,-0.0462931,-0.0468532,2.48551e-05,-0.0054483,0.014,2.74056e-06,-1.40472e-05,-6.95661e-06,0.13578,-0.00444998,-0.0168869,0.000195754,-0.00100337,-0.000496901,9.69861,-0.317856,-1.20621,0.258303,1.4397,-2.98759
1300,0,-0.0446621,-0.0480925,3.80278e-05,0.00157016,0.014,-3.62342e-06,-1.2106e-05,1.11422e-05,0.135714,-0.00405136,-0.0169626,-0.000258816,-0.000864712,0.000795873,9.69383,-0.289383,-1.21161,0.258317,1.43972,-2.98758
1400,0,-0.0451523,-0.0482652,4.48823e-05,0.00230776,0.014,-2.28068e-05,-2.85189e-06,3.47854e-05,0.135811,-0.00443517,-0.0170123,-0.00162906,-0.000203707,0.00248467,9.70077,-0.316798,-1.21516,0.258572,1.43972,-2.98728
1500,0,-0.0460729,-0.0486527,4.61936e-05,0.00446099,0.014,3.28101e-06,3.93881e-06,2.47819e-05,0.135865,-0.00469451,-0.0169695,0.000234358,0.000281343,0.00177014,9.70462,-0.335322,-1.21211,0.257888,1.43969,-2.98796
1600,0,-0.0532208,-0.0478665,2.15769e-05,0.000132197,0.014,6.16687e-06,3.22009e-06,1.25478e-05,0.135821,-0.00471498,-0.017062,0.00044049,0.000230007,0.000896273,9.70152,-0.336784,-1.21871,0.2583,1.43971,-2.98755
1700,0,-0.0566426,-0.0480282,3.97563e-05,0.000564329,0.014,1.0903e-05,1.38473e-05,-6.15644e-06,0.135976,-0.00466166,-0.0172027,0.000778789,0.000989096,-0.000439746,9.71257,-0.332975,-1.22876,0.257981,1.43988,-2.98791
1801,0,-0.0580119,-0.0484872,3.27229e-05,0.00335829,0.014,-2.42549e-05,5.84567e-05,-6.9496e-06,0.135476,-0.00411149,-0.0160674,-0.00173249,0.00417548,-0.0004964,9.67685,-0.293678,-1.14767,0.258136,1.43998,-2.98774
1900,0,-0.0590764,-0.0466651,1.96099e-05,-0.0074674,0.014,-2.03526e-05,-1.72632e-06,4.18632e-05,0.135788,-0.00480005,-0.0159035,-0.00145375,-0.000123309,0.00299023,9.69912,-0.342861,-1.13596,0.257671,1.44031,-2.98819
2000,0,-0.0479356,-0.0482445,4.91738e-05,0.00124978,0.014,-2.27456e-06,-5.39328e-05,1.58962e-05,0.136346,-0.00577132,-0.0163903,-0.000162469,-0.00385234,0.00113545,9.739,-0.412237,-1.17073,0.257154,1.44045,-2.98872
2100,0,-0.0520529,-0.0478908,2.50936e-05,-0.000478758,0.014,2.31838e-05,6.0384e-06,-7.09947e-05,0.135881,-0.00462642,-0.0164502,0.00165599,0.000431314,-0.00507105,9.7058,-0.330458,-1.17502,0.256898,1.44058,-2.98899
2200,0,-0.056189,-0.046863,2.31862e-05,-0.0067596,0.014,-1.26648e-05,-2.05735e-05,1.29813e-05,0.135183,-0.00287908,-0.0152383,-0.000904625,-0.00146953,0.000927234,9.65591,-0.205649,-1.08845,0.258039,1.44038,-2.98778
2300,0,-0.0476185,-0.0485522,4.6134e-05,0.00277713,0.014,-6.32192e-06,2.32171e-06,8.4022e-05,0.135526,-0.00314939,-0.0157308,-0.000451566,0.000165836,0.00600157,9.68044,-0.224956,-1.12363,0.258206,1.44027,-2.98761
2400,0,-0.0451349,-0.0468745,1.93119e-05,-0.00687137,0.014,-1.53567e-05,-3.3531e-05,8.97451e-05,0.136157,-0.00651015,-0.0169214,-0.00109691,-0.00239507,0.00641036,9.7255,-0.465011,-1.20867,0.256766,1.44034,-2.98912
2500,0,-0.0543848,-0.0467913,9.89437e-06,-0.00730352,0.014,7.95111e-06,2.85449e-05,-4.90853e-05,0.136001,-0.00610852,-0.0163344,0.000567937,0.00203892,-0.00350609,9.71434,-0.436323,-1.16674,0.256501,1.44032,-2.98934
2600,0,-0.0440634,-0.0485644,4.07696e-05,0.00256105,0.014,8.60863e-07,-5.57036e-05,-1.6164e-06,0.13547,-0.00345308,-0.0157323,6.14902e-05,-0.00397883,-0.000115457,9.67642,-0.246649,-1.12373,0.257418,1.44021,-2.98836
2701,0,-0.0526064,-0.0489461,4.82798e-05,0.00455035,0.014,-1.18168e-05,-4.96602e-05,3.34569e-05,0.135672,-0.00372137,-0.0166217,-0.000844057,-0.00354716,0.00238978,9.69085,-0.265812,-1.18727,0.257821,1.44034,-2.98796
2800,0,-0.0432387,-0.047679,2.99215e-05,-0.00281828,0.014,-1.28241e-05,-5.44708e-05,6.09187e-05,0.135872,-0.00527903,-0.0171261,-0.000916005,-0.00389077,0.00435134,9.70514,-0.377074,-1.22329,0.257622,1.44028,-2.98816
2900,0,-0.0526781,-0.0496498,4.88162e-05,0.0084917,0.014,1.53162e-07,1.19979e-05,-2.53458e-05,0.135898,-0.00536436,-0.0172833,1.09401e-05,0.000856995,-0.00181042,9.70702,-0.383168,-1.23452,0.257078,1.44043,-2.98872
3000,0,-0.0613803,-0.0480788,3.49879e-05,-0.000806624,0.014,3.54332e-06,-4.45893e-05,-3.73265e-06,0.135885,-0.0044085,-0.0171357,0.000253094,-0.00318495,-0.000266618,9.7061,-0.314893,-1.22398,0.257421,1.44032,-2.98836
3100,0,-0.0360184,-0.0492342,4.38094e-05,0.00582439,0.014,-2.21787e-05,2.33311e-05,-5.407e-06,0.135927,-0.00351326,-0.0171721,-0.0015842,0.0016665,-0.000386214,9.70906,-0.250947,-1.22658,0.257901,1.44035,-2.98788
3201,0,-0.0549339,-0.0494021,5.49555e-05,0.00645769,0.014,-1.76875e-06,-4.59273e-05,4.58243e-05,0.13581,-0.00464956,-0.0179632,-0.000126339,-0.00328052,0.00327317,9.70074,-0.332111,-1.28309,0.257636,1.44051,-2.98818
3300,0,-0.0450598,-0.0487394,3.72529e-05,0.00271005,0.014,-1.25428e-05,-4.16912e-06,8.13107e-06,0.135763,-0.00491173,-0.0180868,-0.000895916,-0.000297794,0.00058079,9.69732,-0.350838,-1.29191,0.257622,1.44049,-2.98819
3400,0,-0.0403348,-0.0482924,2.56896e-05,0.000139601,0.014,7.00266e-06,-1.89828e-05,-2.46671e-07,0.135857,-0.00434286,-0.0184272,0.00050019,-0.00135592,-1.76193e-05,9.70408,-0.310204,-1.31623,0.257889,1.44052,-2.98794
3500,0,-0.0523367,-0.049254,3.70145e-05,0.00554871,0.014,-5.78936e-06,4.2263e-05,1.04591e-05,0.135963,-0.00314432,-0.0180782,-0.000413525,0.00301878,0.000747082,9.71167,-0.224595,-1.2913,0.258461,1.44047,-2.98733
3600,0,-0.0487127,-0.0473991,2.09212e-05,-0.00539619,0.014,-8.33076e-06,2.77165e-05,4.90551e-05,0.135867,-0.00355115,-0.0174853,-0.000595054,0.00197975,0.00350393,9.70481,-0.253654,-1.24895,0.258556,1.44043,-2.98724
3700,0,-0.0556255,-0.048745,3.0756e-05,0.00237476,0.014,-5.0469e-06,-2.85325e-06,5.86333e-05,0.135906,-0.00424103,-0.0183048,-0.00123277,0.000867842,0.00315351,9.70415,-0.362291,-1.24705,0.258432,1.44044,-2.98739
3800,0,-0.0435636,-0.0485382,3.43323e-05,0.000929345,0.014,5.88822e-06,3.38565e-05,1.83647e-05,0.135975,-0.00519542,-0.0185544,0.000420587,0.00241832,0.00131176,9.71252,-0.371102,-1.32531,0.258174,1.44059,-2.98769
3900,0,-0.0370848,-0.0504722,4.36306e-05,0.0122617,0.014,-9.40867e-06,-7.08407e-05,4.82026e-06,0.135677,-0.00544754,-0.0189278,-0.000672048,-0.00506005,0.000344304,9.69121,-0.38911,-1.35198,0.258055,1.4407,-2.98783
4000,0,-0.053629,-0.0478213,2.60472e-05,-0.00345904,0.014,-2.16366e-06,-1.05124e-05,-3.22144e-05,0.135953,-0.00372448,-0.0195764,-0.000154547,-0.000750885,-0.00230102,9.7109,-0.266034,-1.39832,0.258306,1.4407,-2.98756
4100,0,-0.0445551,-0.049903,4.23789e-05,0.0085811,0.014,-8.0927e-07,-1.14065e-05,1.18842e-05,0.135831,-0.0031502,-0.0201235,-5.7805e-05,-0.000814752,0.000848872,9.70221,-0.225014,-1.43739,0.258537,1.44065,-2.98727
4200,0,-0.0489585,-0.0473297,8.9407e-06,-0.00630516,0.014,1.68696e-06,6.86759e-06,5.36946e-05,0.135184,-0.00489924,-0.019483,0.000120497,0.000490542,0.00383533,9.65599,-0.349945,-1.39165,0.258396,1.44064,-2.98738
4300,0,-0.0458661,-0.0481008,5.30481e-06,-0.0016858,0.014,-1.87662e-05,8.60811e-07,3.69374e-05,0.135721,-0.00552467,-0.0190989,-0.00134044,6.14865e-05,0.00263839,9.69433,-0.394619,-1.36421,0.257871,1.44063,-2.98792
4400,0,-0.0437181,-0.0489019,4.1306e-05,0.00221831,0.014,2.90495e-05,4.81043e-05,-2.81173e-05,0.135794,-0.00431678,-0.0184262,0.00207496,0.00343602,-0.00200838,9.69955,-0.308342,-1.31615,0.257848,1.44064,-2.98796
4500,0,-0.0540969,-0.0469697,9.47714e-06,-0.00883836,0.014,-6.61927e-06,6.66856e-05,2.23943e-05,0.135022,-0.00371923,-0.0171513,-0.000472805,0.00476325,0.00159959,9.6444,-0.26566,-1.22509,0.258354,1.44064,-2.98739
4600,0,-0.0549324,-0.0485265,3.48687e-05,-0.000143535,0.014,-2.77443e-05,-4.9858e-05,0.000114286,0.135512,-0.00494365,-0.0158518,-0.00198174,-0.00356129,0.00816325,9.67946,-0.353118,-1.13227,0.258043,1.44049,-2.98766
4700,0,-0.0546952,-0.0478263,2.19941e-05,-0.00419665,0.014,-3.60772e-05,-0.000136812,4.59988e-05,0.136416,-0.00693549,-0.0155426,-0.00257694,-0.00977229,0.00328563,9.74401,-0.495392,-1.11018,0.256549,1.44044,-2.98921
4800,0,-0.0351706,-0.0490637,3.48687e-05,0.00285161,0.014,-3.45328e-05,-9.34512e-05,-0.000108389,0.136289,-0.00500733,-0.0163755,-0.00246663,-0.00667508,-0.00774208,9.73495,-0.357667,-1.16968,0.256341,1.44046,-2.98944
4900,0,-0.0536013,-0.0482603,1.7345e-05,-0.00169325,0.014,5.16095e-06,-9.78311e-05,-3.67575e-05,0.135805,-0.00144789,-0.0173518,0.000368639,-0.00698793,-0.00262554,9.70033,-0.103421,-1.23942,0.25791,1.44034,-2.98777
5000,0,-0.0465658,-0.0493953,2.55108e-05,0.00489306,0.014,-6.79959e-05,-0.000104141,9.50116e-05,0.135749,-0.0025539,-0.0187807,-0.00485685,-0.00743864,0.00678654,9.69632,-0.182421,-1.34148,0.258352,1.44031,-2.98734
5100,0,-0.0453147,-0.0481387,9.47714e-06,-0.00241596,0.014,-2.97385e-05,-0.000104277,7.83684e-05,0.136704,-0.00382534,-0.017586,-0.00212418,-0.00744835,0.00559774,9.76457,-0.273239,-1.25614,0.257613,1.44043,-2.98814
5200,0,-0.0543263,-0.0465464,7.98702e-06,-0.0121092,0.014,1.5684e-05,-3.70607e-05,-3.94462e-05,0.136872,-0.00495427,-0.0188659,0.00112028,-0.00264719,-0.00281759,9.77661,-0.353876,-1.34756,0.256992,1.44052,-2.9888
5300,0,-0.0605208,-0.048197,-1.0848e-05,-0.00186461,0.014,-7.90216e-06,1.21787e-05,-5.81273e-05,0.135606,-0.00285825,-0.0177589,-0.00056444,0.000869907,-0.00415195,9.68617,-0.20416,-1.26849,0.258183,1.44044,-2.98753
5400,0,-0.0567137,-0.0498188,2.40803e-05,0.00709099,0.014,-3.95466e-05,-8.30433e-06,6.14464e-05,0.135617,-0.00234979,-0.0177652,-0.00282475,-0.000593166,0.00438903,9.68694,-0.167842,-1.26894,0.258692,1.4404,-2.98697
5500,0,-0.0430843,-0.0485064,1.7643e-05,-0.000791729,0.014,-3.7992e-05,-6.82878e-06,9.32915e-05,0.136301,-0.00496816,-0.0178526,-0.00271371,-0.00048777,0.00666368,9.73575,-0.354869,-1.27518,0.258035,1.44045,-2.98764
5600,0,-0.0505456,-0.0484378,1.0848e-05,-0.00114936,0.014,-1.44157e-05,3.94327e-05,3.43422e-06,0.136007,-0.00665541,-0.0175239,-0.00102969,0.00281662,0.000245301,9.71479,-0.475386,-1.2517,0.257339,1.44052,-2.98837
5700,0,-0.0594867,-0.0478741,1.09076e-05,-0.00465114,0.014,-1.21323e-05,4.31956e-05,-2.48385e-05,0.135483,-0.00414075,-0.016267,-0.000866596,0.0030854,-0.00177418,9.67735,-0.295768,-1.16193,0.257538,1.44045,-2.98812
5800,0,-0.0546053,-0.0503314,3.85642e-05,0.00946026,0.014,9.63214e-05,0.000499539,-0.000140428,0.136302,0.000680036,-0.0149043,0.0068801,0.0356813,-0.0100306,9.73584,0.048574,-1.06459,0.258232,1.44134,-2.98747
5900,0,-0.0466556,-0.0469349,7.25389e-05,-0.011826,0.014,-6.87659e-05,0.000181308,0.000316246,0.133253,0.00260145,-0.00608067,-0.00491185,0.0129506,0.022589,9.51805,0.185818,-0.434334,0.261349,1.43959,-2.98418
6000,0,-0.0457246,-0.0482586,6.71148e-05,-0.00352609,0.014,-0.00012149,-7.44453e-05,0.000398091,0.13597,-0.014289,-0.0098331,-0.00867788,-0.00531752,0.0284351,9.71215,-1.02064,-0.702364,0.255105,1.43997,-2.99074
6100,0,-0.0589269,-0.0470662,3.39746e-06,-0.00932265,0.014,5.18716e-05,9.71836e-06,-0.0002397,0.137499,-0.0133623,-0.011461,0.00370511,0.000694168,-0.0171214,9.82138,-0.954451,-0.818642,0.253017,1.44014,-2.99291
6200,0,-0.0499612,-0.0484379,-8.9407e-07,-0.0009333,0.014,7.13497e-05,-0.000122987,-0.000274067,0.135107,-0.000183439,-0.0121861,0.00509641,-0.00878477,-0.0195762,9.6505,-0.0131028,-0.870439,0.256759,1.43966,-2.98897
6300,0,-0.0436576,-0.049275,-2.74181e-06,0.00424485,0.014,-2.14222e-05,-0.000200102,0.000138941,0.134294,0.00104896,-0.0153849,-0.00153015,-0.014293,0.00992433,9.59241,0.0749259,-1.09892,0.26031,1.43944,-2.98526
6400,0,-0.0583287,-0.0489592,-1.60933e-05,0.00272494,0.014,-5.58911e-05,-0.00020762,0.00021244,0.136165,-0.00856329,-0.0198766,-0.00399222,-0.01483,0.0151743,9.72605,-0.611663,-1.41975,0.257881,1.43971,-2.98786
6500,0,-0.0481259,-0.0487537,-5.11408e-05,0.0023673,0.014,-1.92088e-05,-0.000132858,4.28325e-06,0.137707,-0.0101911,-0.0189132,-0.00137206,-0.00948988,0.000305946,9.83622,-0.727938,-1.35094,0.255353,1.43991,-2.99048
6600,0,-0.0506296,-0.047565,-5.48363e-05,-0.00460644,0.014,7.80026e-05,-1.17447e-05,-0.000266076,0.135874,-0.00483979,-0.0184505,0.00557161,-0.000838909,-0.0190054,9.70529,-0.345699,-1.3179,0.256555,1.43997,-2.98923
6700,0,-0.0571337,-0.0505548,-8.64267e-06,0.0125001,0.014,5.35721e-06,-9.55854e-05,-1.8598e-05,0.133983,0.000518565,-0.0173915,0.000382658,-0.00682753,-0.00132843,9.57022,0.0370404,-1.24225,0.259645,1.43983,-2.986
6800,0,-0.0618513,-0.0471268,-4.02927e-05,-0.00734825,0.014,-3.35315e-05,-0.000111405,0.000205309,0.135779,-0.00478089,-0.0195574,-0.00239511,-0.0079575,0.0146649,9.69849,-0.341492,-1.39696,0.258794,1.44003,-2.98686
6900,0,-0.0325562,-0.0480957,-3.45111e-05,-0.00154424,0.014,3.38547e-05,-5.95395e-06,1.46809e-05,0.136819,-0.00856216,-0.0203286,0.00241819,-0.000425282,0.00104864,9.7728,-0.611583,-1.45204,0.256193,1.44029,-2.98955
7000,0,-0.0675226,-0.0495486,-2.33054e-05,0.00708353,0.014,7.63249e-05,5.60767e-05,-0.000146594,0.135712,-0.00442143,-0.0181902,0.00545178,0.00400548,-0.010471,9.69371,-0.315816,-1.2993,0.256477,1.44023,-2.98924
7100,0,-0.0508249,-0.0467972,-5.07236e-05,-0.00876386,0.014,1.81251e-05,9.60311e-06,-6.5448e-05,0.135046,-0.00249194,-0.0172468,0.00129465,0.000685937,-0.00467486,9.64613,-0.177996,-1.23192,0.257913,1.44015,-2.9877
7200,0,-0.0397439,-0.0469822,-4.67896e-05,-0.00760157,0.014,-4.50664e-05,-4.88115e-05,0.000107156,0.135189,-0.00314617,-0.0176084,-0.00321903,-0.00348653,0.00765399,9.65638,-0.224727,-1.25774,0.258213,1.44011,-2.98732
7300,0,-0.0530464,-0.0475175,-3.59416e-05,-0.00447977,0.014,-1.84362e-05,-2.01762e-05,9.3138e-05,0.135833,-0.00733877,-0.0180179,-0.00131687,-0.00144116,0.00665271,9.70239,-0.524198,-1.28699,0.256652,1.44011,-2.98894
7400,0,-0.0561831,-0.0495275,-2.06828e-05,0.00742626,0.014,2.47111e-06,3.49423e-05,-2.19449e-05,0.13621,-0.00637849,-0.0170574,0.000176508,0.00249588,-0.00156749,9.72929,-0.455606,-1.21838,0.25625,1.44004,-2.98933
7500,0,-0.0550176,-0.0481234,-3.45707e-05,-0.000605474,0.014,6.93128e-06,1.98683e-05,-3.91339e-05,0.135711,-0.00358189,-0.0166742,0.000495091,0.00141917,-0.00279528,9.69364,-0.255849,-1.19102,0.256864,1.43999,-2.9887
7600,0,-0.0436748,-0.0465189,-5.42402e-05,-0.00971753,0.014,-1.38488e-05,-8.53054e-06,3.60271e-05,0.135358,-0.00331196,-0.0168595,-0.000989201,-0.000609324,0.00257336,9.66841,-0.236568,-1.20425,0.257406,1.43994,-2.98815
7700,0,-0.0508918,-0.0477582,-2.96831e-05,-0.00266928,0.014,-5.87198e-06,1.99126e-05,9.22944e-05,0.135665,-0.0046568,-0.0165035,-0.000419427,0.00142233,0.00659245,9.69037,-0.332628,-1.17882,0.257572,1.43992,-2.98803
7800,0,-0.0466212,-0.047078,-2.87294e-05,-0.00670005,0.014,7.09384e-06,-2.76864e-05,8.04143e-05,0.136172,-0.00566035,-0.0183349,0.000506703,-0.0019776,0.00574388,9.72655,-0.404311,-1.30963,0.25682,1.44001,-2.98885
7900,0,-0.0576868,-0.0484855,-2.86102e-05,0.00185321,0.014,1.41082e-05,7.41153e-05,-4.89348e-05,0.136074,-0.00529882,-0.0185851,0.00100773,0.00529395,-0.00349534,9.71961,-0.378487,-1.3275,0.256607,1.44014,-2.98909
8000,0,-0.0459278,-0.0467132,-4.071e-05,-0.00845094,0.014,4.78391e-06,3.40454e-05,-1.5959e-05,0.135435,-0.00263013,-0.0172113,0.000341708,0.00243181,-0.00113993,9.67395,-0.187866,-1.22938,0.257627,1.44005,-2.988
8100,0,-0.0430464,-0.0490852,-8.10623e-06,0.00522087,0.014,3.35809e-05,-7.17784e-06,8.96107e-05,0.135955,-0.00308246,-0.0170828,0.00239863,-0.000512703,0.00640077,9.71108,-0.220176,-1.2202,0.257406,1.43999,-2.98822
8200,0,-0.0503289,-0.0476075,-3.62396e-05,-0.00293006,0.014,3.06307e-05,-3.38391e-06,3.12003e-05,0.136192,-0.005939,-0.0173329,0.00218791,-0.000241708,0.00222859,9.72801,-0.424214,-1.23807,0.256516,1.44008,-2.98914
8300,0,-0.0428506,-0.0480011,-2.68817e-05,-0.000650189,0.014,2.08762e-05,1.84354e-05,-4.20582e-05,0.136043,-0.00555224,-0.017043,0.00149116,0.00131681,-0.00300415,9.71736,-0.396588,-1.21736,0.25617,1.44009,-2.98952
8400,0,-0.0536168,-0.0489402,-1.63317e-05,0.00489304,0.014,6.88988e-06,-3.67384e-06,4.18895e-07,0.13553,-0.00314082,-0.0156839,0.000492134,-0.000262417,2.99211e-05,9.6807,-0.224344,-1.12028,0.257016,1.43993,-2.98862
8500,0,-0.0300185,-0.0488888,-1.87159e-05,0.00474403,0.014,-5.54229e-06,-1.01006e-05,5.54974e-05,0.135436,-0.00392403,-0.0165975,-0.000395878,-0.000721471,0.0039641,9.67401,-0.280288,-1.18554,0.257421,1.44004,-2.9882
8600,0,-0.046115,-0.0485373,-1.86563e-05,0.00273237,0.014,-6.88895e-06,2.17802e-05,5.25991e-05,0.135927,-0.00501457,-0.0169207,-0.000492068,0.00155573,0.00375708,9.70909,-0.358183,-1.20862,0.256829,1.44011,-2.98882
8700,0,-0.0570629,-0.0467718,-4.6432e-05,-0.00717691,0.014,3.71307e-05,2.25613e-05,2.69866e-06,0.135647,-0.00515418,-0.0162397,0.0026522,0.00161152,0.000192761,9.68904,-0.368156,-1.15998,0.256655,1.44002,-2.98902
8800,0,-0.0332669,-0.0472884,-2.92659e-05,-0.00433079,0.014,6.86755e-05,9.38592e-07,-1.60045e-06,0.136084,-0.00380766,-0.0159094,0.00490539,6.70423e-05,-0.000114318,9.72025,-0.271976,-1.13639,0.256867,1.44005,-2.98883
8900,0,-0.043683,-0.0493702,-9.59635e-06,0.00788816,0.014,2.60115e-05,1.7811e-05,2.15063e-06,0.135661,-0.00392119,-0.0150838,0.00185796,0.00127221,0.000153617,9.69007,-0.280085,-1.07741,0.256902,1.44003,-2.98876
9000,0,-0.0191443,-0.0474738,-3.27826e-05,-0.00292263,0.014,1.409e-05,-1.75141e-05,3.40602e-05,0.1359,-0.00456908,-0.0158868,0.00100643,-0.00125101,0.00243287,9.70717,-0.326363,-1.13477,0.256292,1.44018,-2.98937
9100,0,-0.064559,-0.048198,-2.2769e-05,0.001354,0.014,1.59631e-05,8.42384e-06,-2.53134e-05,0.13648,-0.00458213,-0.0173528,0.00114022,0.000601703,-0.0018081,9.74857,-0.327295,-1.23949,0.255735,1.44043,-2.98996
9201,0,-0.0403837,-0.0491841,-2.0802e-05,0.00736661,0.014,2.81985e-05,-1.29065e-05,-3.0584e-05,0.135647,-0.00542317,-0.017613,0.00201418,-0.000921894,-0.00218457,9.6891,-0.387369,-1.25807,0.256148,1.44047,-2.98952
9302,0,-0.050728,-0.0484763,-2.38419e-05,0.0032837,0.014,1.34548e-05,4.62888e-06,-1.88569e-05,0.135943,-0.00278681,-0.0173299,0.00096106,0.000330634,-0.00134692,9.71018,-0.199058,-1.23785,0.256945,1.4404,-2.9887
9400,0,-0.0372333,-0.0474752,-3.21865e-05,-0.0024607,0.014,2.11681e-05,-2.21297e-05,5.60217e-05,0.135774,-0.00329179,-0.0171319,0.001512,-0.00158069,0.00400155,9.69817,-0.235128,-1.22371,0.256855,1.44035,-2.98881
9500,0,-0.0531664,-0.0473912,-3.95179e-05,-0.00269913,0.014,-1.22942e-05,-2.24983e-05,5.1801e-05,0.135963,-0.00599033,-0.0183011,-0.000878157,-0.00160702,0.00370007,9.71167,-0.427881,-1.30722,0.255743,1.44051,-2.98993
9600,0,-0.0319123,-0.0471541,-3.44515e-05,-0.00413709,0.014,2.32373e-06,-4.92142e-06,-2.05483e-05,0.136024,-0.00549306,-0.0180497,0.000165981,-0.00035153,-0.00146774,9.716,-0.392361,-1.28927,0.255419,1.44054,-2.99028
9700,0,-0.0434128,-0.0462944,-4.1306e-05,-0.00906193,0.014,6.43939e-06,-2.52583e-05,-3.12148e-05,0.135882,-0.00356002,-0.0176648,0.000459957,-0.00180416,-0.00222963,9.70585,-0.254287,-1.26177,0.255873,1.44054,-2.98983
9800,0,-0.0314077,-0.0472748,-2.8491e-05,-0.00333988,0.014,-1.47117e-05,-1.59123e-05,3.73542e-05,0.135803,-0.00277058,-0.0166339,-0.00105084,-0.0011366,0.00266816,9.70024,-0.197899,-1.18813,0.25667,1.4405,-2.98906
9900,0,-0.0505778,-0.0468366,-4.30942e-05,-0.00554526,0.014,-2.4757e-05,-4.28468e-05,6.44324e-05,0.135961,-0.00512122,-0.0168391,-0.00176836,-0.00306048,0.00460231,9.71153,-0.365802,-1.20279,0.255832,1.44058,-2.98991
10000,0,-0.0551019,-0.0481306,-1.9908e-05,0.00184572,0.014,-1.37959e-06,2.78373e-06,2.6532e-05,0.136252,-0.00499967,-0.0163456,-9.85419e-05,0.000198838,0.00189514,9.73229,-0.35712,-1.16754,0.255234,1.44057,-2.99056
10100,0,-0.0340503,-0.047598,-2.5034e-05,-0.00113451,0.014,1.52089e-05,-1.74237e-05,-5.74209e-06,0.136224,-0.0049467,-0.0166951,0.00108635,-0.00124455,-0.000410149,9.7303,-0.353335,-1.19251,0.254992,1.4406,-2.99081
10200,0,-0.0525876,-0.0471241,-3.53456e-05,-0.00366771,0.014,7.35295e-06,-1.59305e-05,-1.36943e-05,0.135665,-0.00421887,-0.0162306,0.000525211,-0.00113789,-0.000978166,9.69033,-0.301348,-1.15933,0.255267,1.44056,-2.99047
10300,0,-0.0430778,-0.0471588,-3.56436e-05,-0.00335479,0.014,-3.31302e-06,3.33975e-06,1.46205e-05,0.135577,-0.00401447,-0.0167133,-0.000236645,0.000238553,0.00104432,9.68406,-0.286748,-1.19381,0.255559,1.44061,-2.99017
10400,0,-0.0624797,-0.0482723,-2.0504e-05,0.00311976,0.014,4.02372e-06,-1.831e-05,3.74244e-05,0.13597,-0.00435291,-0.0168591,0.000287408,-0.00130786,0.00267317,9.71214,-0.310922,-1.20422,0.255348,1.44062,-2.99039
10500,0,-0.0587475,-0.0471616,-2.64049e-05,-0.00333245,0.014,8.35344e-06,-5.0678e-07,1.58744e-05,0.135901,-0.00488317,-0.0164901,0.000596674,-3.61986e-05,0.00113388,9.70723,-0.348798,-1.17787,0.254865,1.44068,-2.99083
10600,0,-0.0521969,-0.0486931,-2.29478e-05,0.00593607,0.014,-1.89178e-05,1.28822e-05,4.16814e-05,0.135638,-0.00460455,-0.0159243,-0.00135127,0.000920156,0.00297724,9.68842,-0.328896,-1.13745,0.255033,1.44061,-2.99067
10700,0,-0.0577302,-0.0479598,-2.75373e-05,0.00173395,0.014,-7.41929e-06,-1.7356e-05,3.8072e-05,0.135882,-0.00519397,-0.0157493,-0.000529949,-0.00123971,0.00271943,9.70585,-0.370998,-1.12495,0.254644,1.44056,-2.99111
10800,0,-0.0356689,-0.048377,-1.37091e-05,0.00404363,0.014,-1.21264e-05,-2.24244e-05,1.37299e-05,0.135855,-0.00550678,-0.0159514,-0.000866174,-0.00160174,0.000980706,9.7039,-0.393341,-1.13939,0.254686,1.44052,-2.99107
10900,0,-0.0398677,-0.0469645,-4.61936e-05,-0.00363793,0.014,1.6395e-05,-2.85738e-05,-2.33222e-05,0.135677,-0.00448641,-0.0158666,0.00117107,-0.00204099,-0.00166587,9.69122,-0.320458,-1.13333,0.254972,1.44047,-2.99079
11000,0,-0.0320664,-0.0466692,-3.5882e-05,-0.00553783,0.014,-2.19014e-05,-4.11982e-05,1.30177e-05,0.135741,-0.00358593,-0.0160226,-0.00156439,-0.00294273,0.000929837,9.69577,-0.256137,-1.14447,0.255733,1.44034,-2.99
11101,0,-0.0384128,-0.0469402,-2.91467e-05,-0.00394341,0.014,-2.21062e-05,-6.45941e-05,4.81884e-05,0.135991,-0.00447039,-0.016404,-0.00157902,-0.00461386,0.00344203,9.71367,-0.319314,-1.17172,0.255654,1.44032,-2.99011
11200,0,-0.0491665,-0.0495528,-7.09295e-06,0.0114048,0.014,-2.58496e-06,-1.79519e-05,-5.20669e-06,0.13613,-0.00541413,-0.0172508,-0.00018464,-0.00128228,-0.000371906,9.72359,-0.386724,-1.2322,0.255341,1.44041,-2.99046
11300,0,-0.0584203,-0.0479507,-1.92523e-05,0.00211391,0.014,8.78488e-06,-7.55893e-06,-2.1108e-05,0.135605,-0.00451322,-0.0170683,0.000627491,-0.000539923,-0.00150772,9.68611,-0.322373,-1.21916,0.255314,1.44039,-2.99047
11400,0,-0.05036,-0.0475427,-2.88486e-05,-3.18572e-05,0.014,1.16629e-05,-1.32974e-05,-4.61129e-06,0.13577,-0.0036614,-0.0168856,0.000833066,-0.000949817,-0.000329378,9.69788,-0.261529,-1.20611,0.255844,1.44035,-2.98991
11500,0,-0.0441743,-0.0479879,-2.59876e-05,0.0027025,0.014,-2.98877e-07,-3.3128e-05,4.96484e-05,0.135799,-0.0041289,-0.0175524,-2.13484e-05,-0.00236628,0.00354631,9.69993,-0.294921,-1.25374,0.256211,1.44037,-2.98953
11600,0,-0.0515621,-0.0480574,-2.31862e-05,0.00316444,0.014,2.50532e-06,-3.03326e-05,1.75898e-05,0.136042,-0.00545973,-0.0187299,0.000178951,-0.00216661,0.00125642,9.71725,-0.38998,-1.33785,0.255116,1.44048,-2.99066
11700,0,-0.0356344,-0.0476749,-1.57952e-05,0.000787702,0.014,2.14252e-05,2.54818e-05,-2.86531e-05,0.136006,-0.00419033,-0.0187344,0.00153037,0.00182013,-0.00204665,9.71473,-0.299309,-1.33817,0.255247,1.44052,-2.9905
11800,0,-0.0560024,-0.0464037,-4.03523e-05,-0.00623819,0.014,-4.04156e-06,5.45244e-05,7.98787e-06,0.135513,-0.00236702,-0.0177756,-0.000288683,0.0038946,0.000570562,9.67948,-0.169073,-1.26969,0.256107,1.44048,-2.9896
11900,0,-0.0463532,-0.0482105,-2.92063e-05,0.004513,0.014,-2.18813e-05,4.39066e-05,9.10677e-05,0.135504,-0.00399568,-0.0175738,-0.00156295,0.00313619,0.00650484,9.67887,-0.285406,-1.25527,0.256229,1.44053,-2.98944
12000,0,-0.061648,-0.0480461,-2.06828e-05,0.0034401,0.014,-2.27769e-05,4.5294e-05,0.000107281,0.136118,-0.00416566,-0.0171442,-0.00162692,0.00323528,0.00766294,9.72271,-0.297547,-1.22459,0.255768,1.44046,-2.98992
12100,0,-0.0473406,-0.0456932,-4.76837e-05,-0.0100305,0.014,7.20677e-06,-9.46008e-06,4.45489e-05,0.136197,-0.00661196,-0.0164662,0.000514769,-0.00067572,0.00318207,9.72837,-0.472283,-1.17616,0.254723,1.44044,-2.99104
12200,0,-0.0450578,-0.0466439,-3.70145e-05,-0.0044426,0.014,1.84576e-05,3.22757e-05,-4.15661e-05,0.135551,-0.00562596,-0.0152079,0.0013184,0.00230541,-0.00296901,9.68224,-0.401854,-1.08628,0.254982,1.44037,-2.99073
12300,0,-0.0503318,-0.0482617,2.74181e-06,0.004513,0.014,-6.89481e-06,-2.27433e-05,1.18058e-05,0.135598,-0.00353396,-0.0148902,-0.000492486,-0.00162452,0.000843272,9.68554,-0.252426,-1.06359,0.255877,1.4403,-2.98977
12400,0,-0.0500263,-0.048046,-1.0252e-05,0.00358912,0.014,-9.66174e-06,-8.64494e-05,6.93547e-05,0.135929,-0.00423325,-0.0151979,-0.000690124,-0.00617496,0.00495391,9.70925,-0.302375,-1.08556,0.255907,1.44026,-2.98973
12500,0,-0.0632468,-0.0476081,-2.00868e-05,0.00127198,0.014,5.52082e-06,-8.49177e-05,-1.55558e-05,0.135909,-0.00661233,-0.0178918,0.000394344,-0.00606555,-0.00111113,9.70775,-0.472309,-1.27798,0.25486,1.44046,-2.99083
12600,0,-0.0506545,-0.0488655,-5.30481e-06,0.00855865,0.014,1.30607e-05,-5.01876e-05,-6.76624e-05,0.135677,-0.00489062,-0.0182079,0.00093291,-0.00358483,-0.00483303,9.6912,-0.34933,-1.30056,0.255048,1.4405,-2.99063
12700,0,-0.0608755,-0.0456098,-4.51803e-05,-0.0100902,0.014,-1.24535e-06,-2.20952e-05,-6.52212e-06,0.135815,-0.00166106,-0.0179208,-8.89534e-05,-0.00157823,-0.000465865,9.70107,-0.118647,-1.28005,0.256424,1.44036,-2.98922
12800,0,-0.0491175,-0.0460712,-3.98755e-05,-0.0073409,0.014,-2.42461e-05,-5.05512e-05,3.77878e-05,0.134123,-0.00415719,-0.0185468,-0.00173186,-0.0036108,0.00269913,9.58022,-0.296942,-1.32477,0.25666,1.44028,-2.98893
12900,0,-0.0524682,-0.0469486,-2.58088e-05,-0.0022894,0.014,-6.75312e-05,-2.82953e-05,9.87059e-05,0.135733,-0.00542497,-0.0185281,-0.00482365,-0.00202109,0.00705042,9.6952,-0.387498,-1.32344,0.255624,1.44036,-2.98999
13000,0,-0.0523394,-0.0470175,-2.74181e-05,-0.00175296,0.014,1.64617e-05,4.91847e-05,-1.45724e-05,0.136367,-0.005849,-0.0166933,0.00117584,0.00351319,-0.00104089,9.74048,-0.417785,-1.19238,0.254895,1.44048,-2.99076
13100,0,-0.0486711,-0.048112,-6.61612e-06,0.00447572,0.014,3.30791e-05,2.68349e-05,-3.84697e-05,0.135903,-0.0036806,-0.0157537,0.00236279,0.00191678,-0.00274784,9.70739,-0.2629,-1.12526,0.255839,1.44035,-2.9898
13200,0,-0.0521877,-0.0473568,-1.97887e-05,0.000310854,0.014,-1.06901e-05,-1.42984e-05,6.13191e-05,0.135388,-0.00349639,-0.0153157,-0.000763579,-0.00102132,0.00437993,9.67056,-0.249742,-1.09398,0.256419,1.44027,-2.98918
13300,0,-0.0683825,-0.0456007,-3.83854e-05,-0.00975488,0.014,-1.62017e-05,-2.35359e-05,4.85091e-05,0.136048,-0.00540623,-0.0158944,-0.00115727,-0.00168114,0.00346493,9.7177,-0.386159,-1.13531,0.255664,1.44035,-2.98996
13400,0,-0.04757,-0.0472445,-2.44379e-05,-6.91352e-05,0.014,-9.3337e-07,2.99378e-05,-4.10538e-05,0.136403,-0.00455162,-0.014121,-6.66693e-05,0.00213841,-0.00293241,9.7431,-0.325116,-1.00864,0.254951,1.44045,-2.99073
13500,0,-0.0503771,-0.0468634,-3.26037e-05,-0.00208825,0.014,5.44993e-05,6.34952e-05,-5.72826e-05,0.135872,-0.00367544,-0.0165286,0.0038928,0.00453537,-0.00409162,9.70512,-0.262531,-1.18062,0.255568,1.4405,-2.99011
13600,0,-0.05751,-0.0459352,-3.91603e-05,-0.00743032,0.014,-3.37635e-06,-6.60727e-06,5.48839e-05,0.135032,-0.00320576,-0.0158831,-0.000241168,-0.000471948,0.00392027,9.64511,-0.228983,-1.13451,0.25651,1.44035,-2.98914
13700,0,-0.065177,-0.0467851,-2.55704e-05,-0.00252039,0.014,-4.38001e-05,-5.35041e-05,8.81728e-05,0.136014,-0.00559891,-0.016713,-0.00312858,-0.00382172,0.00629806,9.71527,-0.399922,-1.19378,0.255581,1.44037,-2.9901
13800,0,-0.0368724,-0.0455495,-4.30346e-05,-0.00948668,0.014,4.45259e-06,-2.25391e-05,-2.10465e-05,0.136627,-0.00605062,-0.0172515,0.000318042,-0.00160994,-0.00150332,9.7591,-0.432187,-1.23225,0.254908,1.44041,-2.99082
13900,0,-0.0513673,-0.0473031,-8.28505e-06,0.000400236,0.014,2.40441e-05,1.54538e-05,-7.78522e-05,0.135398,-0.00389722,-0.0164861,0.00171744,0.00110385,-0.00556087,9.67125,-0.278373,-1.17758,0.255368,1.44039,-2.99031
14000,0,-0.0457938,-0.0470952,-1.52588e-05,-0.000627935,0.014,-2.16017e-05,-7.2721e-05,7.10764e-05,0.135125,-0.00324549,-0.0159927,-0.00154298,-0.00519436,0.00507688,9.65179,-0.23182,-1.14233,0.256667,1.4402,-2.98894
14100,0,-0.0388833,-0.0473718,-1.27554e-05,0.00104845,0.014,-2.79712e-05,-4.42036e-05,9.0563e-05,0.13594,-0.00446199,-0.0160095,-0.00199795,-0.0031574,0.00646879,9.71001,-0.318714,-1.14354,0.256144,1.44025,-2.98948
14200,0,-0.0469118,-0.0459938,-3.80278e-05,-0.00661821,0.014,5.15153e-06,-7.76478e-06,3.02059e-05,0.135831,-0.0069126,-0.0165823,0.000367967,-0.000554627,0.00215757,9.70222,-0.493757,-1.18445,0.25521,1.44031,-2.99046
14300,0,-0.0483527,-0.0465414,-2.45571e-05,-0.00352622,0.014,1.7021e-05,1.57755e-05,-6.30925e-05,0.135821,-0.00503686,-0.015986,0.00121578,0.00112682,-0.00450661,9.70149,-0.359776,-1.14185,0.255275,1.44034,-2.9904
14400,0,-0.06172,-0.0469251,-2.06232e-05,-0.00122399,0.014,-9.37724e-06,-8.4948e-05,2.95936e-05,0.135177,-0.00425042,-0.0169121,-0.000669802,-0.00606772,0.00211383,9.65551,-0.303602,-1.208,0.256174,1.44028,-2.9895
14500,0,-0.0428352,-0.0467785,-3.53456e-05,-0.00169338,0.014,-1.53736e-05,-9.50142e-05,5.71099e-05,0.135669,-0.00524758,-0.0179919,-0.00109811,-0.00678673,0.00407928,9.69062,-0.374827,-1.28514,0.256215,1.44026,-2.9895
14600,0,-0.0564559,-0.0468463,-1.71661e-05,-0.00160397,0.014,1.19119e-05,-1.81174e-05,-1.34439e-05,0.136327,-0.00486099,-0.018533,0.00085085,-0.0012941,-0.000960275,9.73763,-0.347213,-1.32378,0.256137,1.44037,-2.98964
14700,0,-0.0478452,-0.0482533,-1.22786e-05,0.00685244,0.014,3.27317e-05,-8.89193e-06,-2.44781e-05,0.135828,-0.00335831,-0.0179479,0.00233798,-0.000635138,-0.00174843,9.70197,-0.23988,-1.28199,0.256686,1.44033,-2.98906
14800,0,-0.0406633,-0.0472364,-1.67489e-05,0.000914327,0.014,-8.43641e-06,-2.37488e-05,1.95034e-05,0.135463,-0.0030084,-0.0171197,-0.000602601,-0.00169634,0.0013931,9.67593,-0.214886,-1.22284,0.257117,1.44023,-2.98862
14900,0,-0.0367701,-0.0478868,-1.03712e-05,0.00477373,0.014,-2.13901e-05,-0.000104996,6.8431e-05,0.13586,-0.00541988,-0.0188004,-0.00152786,-0.00749969,0.00488792,9.70427,-0.387134,-1.34289,0.255975,1.44041,-2.9898
15000,0,-0.0602129,-0.0467671,-2.78354e-05,-0.00152202,0.014,8.34134e-06,-1.40545e-05,-3.39983e-05,0.136009,-0.00590622,-0.0191999,0.00059581,-0.0010039,-0.00242845,9.7149,-0.421873,-1.37142,0.255496,1.44045,-2.99029
15100,0,-0.0566087,-0.0472636,-1.38879e-05,0.00123468,0.014,3.26236e-06,4.04851e-05,-3.50153e-05,0.135486,-0.00250957,-0.017005,0.000233025,0.00289179,-0.00250109,9.67759,-0.179255,-1.21464,0.256832,1.44026,-2.9889
15200,0,-0.0441039,-0.0479763,5.30481e-06,0.00518349,0.014,-2.82562e-05,-1.54171e-05,9.1444e-05,0.136057,-0.00270212,-0.0164142,-0.0020183,-0.00110122,0.00653172,9.71839,-0.193008,-1.17244,0.257536,1.44025,-2.98817
15300,0,-0.0549225,-0.0460148,-2.77162e-05,-0.00582102,0.014,9.39489e-06,1.56241e-05,6.40605e-05,0.135881,-0.00605477,-0.0160047,0.000671063,0.00111601,0.00457575,9.7058,-0.432483,-1.14319,0.25634,1.44034,-2.98942
15400,0,-0.0543067,-0.0476952,-9.23872e-06,0.00396905,0.014,9.53669e-06,1.36118e-05,-1.32996e-05,0.136013,-0.0062113,-0.0167017,0.000681192,0.000972274,-0.000949975,9.7152,-0.443664,-1.19298,0.255772,1.44032,-2.99003
15500,0,-0.0569928,-0.0472793,-1.28746e-05,0.00162211,0.014,-1.14778e-05,-7.56493e-05,2.01969e-06,0.135771,-0.00568745,-0.0168671,-0.000819841,-0.00540352,0.000144264,9.69792,-0.406246,-1.20479,0.255961,1.44021,-2.98982
15600,0,-0.0485885,-0.0485958,-9.77516e-06,0.00956443,0.014,4.88031e-06,-0.000106962,-1.89292e-05,0.136307,-0.00463337,-0.0173161,0.000348593,-0.00764014,-0.00135208,9.73621,-0.330955,-1.23687,0.256056,1.44021,-2.98971
15700,0,-0.0524096,-0.046855,-1.96695e-05,-0.000627969,0.014,2.79248e-05,-0.000107969,-3.90103e-05,0.136348,-0.00445205,-0.0192871,0.00199463,-0.00771205,-0.00278645,9.73914,-0.318003,-1.37765,0.256136,1.44027,-2.98963
15800,0,-0.0435655,-0.0462897,-3.8743e-05,-0.00353369,0.014,4.19551e-05,-3.06642e-05,-7.17771e-05,0.136,-0.00321166,-0.020118,0.0029968,-0.0021903,-0.00512694,9.71428,-0.229404,-1.437,0.256613,1.44039,-2.98914
15900,0,-0.0433161,-0.0463126,-2.18749e-05,-0.00369761,0.014,2.35854e-06,-4.81465e-05,2.66899e-05,0.134982,-0.00288581,-0.0201367,0.000168467,-0.00343903,0.00190642,9.64159,-0.206129,-1.43833,0.257045,1.44029,-2.98865
16000,0,-0.0424574,-0.0479463,-9.29832e-06,0.005936,0.014,-3.99754e-05,-2.35699e-05,0.000113354,0.135259,-0.00470045,-0.0188173,-0.00285538,-0.00168356,0.00809671,9.66132,-0.335747,-1.34409,0.25726,1.44017,-2.98844
16100,0,-0.0576513,-0.047407,-1.53184e-05,0.00289617,0.014,-2.42844e-05,2.99837e-06,2.91276e-05,0.136631,-0.00586751,-0.0179493,-0.0017346,0.000214169,0.00208054,9.75935,-0.419108,-1.28209,0.255861,1.44025,-2.98987
16200,0,-0.0515341,-0.0475821,-1.17421e-05,0.0039616,0.014,1.84471e-05,1.58393e-05,-6.27115e-05,0.136164,-0.00467659,-0.0169689,0.00131765,0.00113138,-0.00447939,9.72597,-0.334042,-1.21207,0.255653,1.44031,-2.99005
16300,0,-0.0387481,-0.0473441,-5.78165e-06,0.00244913,0.014,-2.15848e-06,4.4438e-06,-2.5893e-05,0.135641,-0.00347939,-0.0159913,-0.000154177,0.000317414,-0.0018495,9.68862,-0.248528,-1.14223,0.256159,1.44028,-2.98949
16400,0,-0.0548418,-0.0457075,-2.91467e-05,-0.00680449,0.014,-1.3095e-05,-5.85994e-05,8.45917e-05,0.135289,-0.00295368,-0.0138481,-0.000935356,-0.00418567,0.00604226,9.66348,-0.210977,-0.989152,0.256852,1.43989,-2.98876
16500,0,-0.0379361,-0.0463014,-1.89543e-05,-0.00336978,0.014,-2.29439e-05,-0.000151837,8.78411e-05,0.136588,-0.00807141,-0.0174081,-0.00163885,-0.0108455,0.00627436,9.7563,-0.576529,-1.24344,0.254967,1.44032,-2.99074
16600,0,-0.0474786,-0.0476175,-1.91927e-05,0.00463214,0.014,3.75954e-05,2.34253e-07,-0.000147948,0.136244,-0.00592797,-0.0180115,0.00268538,1.67324e-05,-0.0105677,9.73169,-0.423426,-1.28653,0.255473,1.44029,-2.99023
16700,0,-0.0401446,-0.0468726,-1.75238e-05,0.000184149,0.014,7.64043e-06,-7.17381e-05,-3.94393e-05,0.135159,-0.000983372,-0.0169436,0.000545745,-0.00512415,-0.00281709,9.65421,-0.0702409,-1.21026,0.257223,1.44004,-2.98838
16800,0,-0.0467349,-0.0473416,-9.17912e-06,0.00291106,0.014,-1.65262e-05,-1.20159e-05,9.71559e-05,0.135546,-0.00246742,-0.0180601,-0.00118044,-0.00085828,0.00693971,9.68188,-0.176244,-1.29,0.257772,1.44018,-2.98784
16900,0,-0.0598205,-0.0450218,-4.57764e-05,-0.0101796,0.014,-2.85147e-05,-3.17774e-05,9.96949e-05,0.136281,-0.00633315,-0.0178858,-0.00203676,-0.00226981,0.00712107,9.73435,-0.452368,-1.27755,0.256579,1.4402,-2.98906
17000,0,-0.038609,-0.0461308,-2.88486e-05,-0.00379447,0.014,-1.83211e-05,-2.9572e-05,1.46304e-05,0.136518,-0.00735065,-0.0181015,-0.00130865,-0.00211228,0.00104503,9.75131,-0.525046,-1.29296,0.255339,1.44023,-2.99032
17100,0,-0.0495036,-0.0466341,-1.80006e-05,-0.000940894,0.014,4.49375e-05,2.40429e-05,-9.43263e-05,0.13599,-0.00462048,-0.0178746,0.00320982,0.00171735,-0.00673759,9.7136,-0.330034,-1.27675,0.256023,1.44018,-2.98964
17200,0,-0.0506517,-0.04643,-1.93715e-05,-0.00207338,0.014,1.17496e-05,7.23464e-06,1.06255e-05,0.135227,-0.00126723,-0.01704,0.000839258,0.00051676,0.000758962,9.65905,-0.0905162,-1.21714,0.257745,1.43993,-2.98788
17300,0,-0.044176,-0.0474789,-6.07967e-06,0.00404355,0.014,-2.4273e-05,-3.36291e-06,0.000124149,0.135598,-0.0037205,-0.0169717,-0.00173379,-0.000240208,0.00886778,9.68561,-0.26575,-1.21226,0.257366,1.4399,-2.98829
17400,0,-0.0553777,-0.0464877,-2.27094e-05,-0.00146988,0.014,-5.49818e-06,1.13518e-05,5.82593e-05,0.136321,-0.00706371,-0.0175225,-0.000392727,0.000810844,0.00416138,9.73722,-0.504551,-1.25161,0.256218,1.43999,-2.98951
17500,0,-0.0555705,-0.0460026,-3.48091e-05,-0.00403288,0.014,1.91441e-05,1.68061e-05,-5.64223e-05,0.136323,-0.00582325,-0.0174242,0.00136744,0.00120044,-0.00403016,9.73733,-0.415946,-1.24458,0.255508,1.44008,-2.99024
17600,0,-0.0500475,-0.0482749,-3.03984e-06,0.00903544,0.014,1.95708e-05,1.30996e-05,-3.9223e-05,0.13551,-0.00300473,-0.0178605,0.00139792,0.000935683,-0.00280164,9.67926,-0.214624,-1.27575,0.256749,1.43998,-2.98894
17700,0,-0.0440033,-0.0465005,-1.63317e-05,-0.00128361,0.014,7.92857e-07,-3.21205e-05,1.672e-05,0.135269,-0.0022738,-0.0174386,5.66327e-05,-0.00229432,0.00119429,9.66207,-0.162414,-1.24561,0.257902,1.43984,-2.98776
17800,0,-0.0275037,-0.0463906,-2.80142e-05,-0.00161144,0.014,-3.81114e-05,-5.0984e-05,0.000117158,0.135736,-0.00414553,-0.0174069,-0.00272224,-0.00364172,0.00836844,9.69544,-0.296109,-1.24335,0.257795,1.43981,-2.98789
17900,0,-0.0418563,-0.0467208,-1.49608e-05,0.000161796,0.014,-2.14265e-05,-4.74066e-05,4.14338e-05,0.136472,-0.00648579,-0.0173596,-0.00153046,-0.00338619,0.00295956,9.74803,-0.463271,-1.23997,0.25643,1.43994,-2.98935
18000,0,-0.0462258,-0.0460832,-3.43323e-05,-0.00316117,0.014,2.26245e-05,-4.95856e-05,-8.30408e-05,0.135982,-0.00668321,-0.0187994,0.00161604,-0.00354183,-0.00593149,9.71297,-0.477372,-1.34281,0.256244,1.44001,-2.98955
18100,0,-0.0460165,-0.0474535,-8.28505e-06,0.00457253,0.014,1.60943e-06,-1.85024e-05,-6.9819e-05,0.135288,-0.00183728,-0.0167144,0.000114959,-0.0013216,-0.00498707,9.66341,-0.131235,-1.19389,0.257651,1.43988,-2.98811
18200,0,-0.0408103,-0.0479271,1.72853e-06,0.00727709,0.014,-3.26629e-05,-0.000104052,0.000105448,0.135405,-0.00303261,-0.0172068,-0.00233307,-0.00743229,0.00753202,9.67176,-0.216615,-1.22905,0.258473,1.43977,-2.98729
18300,0,-0.028685,-0.0468232,-2.74181e-06,0.00078763,0.014,-1.54549e-05,-5.04636e-05,5.0638e-05,0.136395,-0.00699574,-0.0187315,-0.00110392,-0.00360455,0.003617,9.74251,-0.499696,-1.33796,0.256914,1.43993,-2.98897
18400,0,-0.0441558,-0.0464988,-1.97887e-05,-0.000754639,0.014,8.20758e-06,4.6695e-06,-4.4681e-05,0.136299,-0.00589017,-0.0176277,0.000586255,0.000333536,-0.0031915,9.73568,-0.420726,-1.25912,0.256277,1.43996,-2.98963
18500,0,-0.0541158,-0.0458938,-2.96831e-05,-0.00409995,0.014,7.33049e-06,1.2975e-06,-3.73782e-05,0.135576,-0.0033186,-0.0166996,0.000523606,9.26788e-05,-0.00266987,9.68397,-0.237043,-1.19283,0.257416,1.43985,-2.98844
18600,0,-0.038499,-0.0458177,-1.57952e-05,-0.00479286,0.014,-2.11043e-05,-3.3722e-05,4.79538e-05,0.13568,-0.00334998,-0.0175944,-0.00150745,-0.00240871,0.00342527,9.69142,-0.239284,-1.25674,0.257706,1.43997,-2.98815
18700,0,-0.064724,-0.0472098,-1.4782e-05,0.00364865,0.014,-1.03623e-05,-3.50589e-06,6.20435e-05,0.135843,-0.00464819,-0.0171823,-0.000740165,-0.000250421,0.00443168,9.70305,-0.332014,-1.22731,0.25739,1.43998,-2.98845
18800,0,-0.0355726,-0.0451604,-3.98755e-05,-0.00805621,0.014,-1.56938e-05,-5.03784e-06,3.43653e-05,0.13597,-0.00549331,-0.016589,-0.00112098,-0.000359846,0.00245466,9.71216,-0.39238,-1.18493,0.25692,1.43996,-2.98889
18900,0,-0.0306811,-0.0466386,-5.24521e-06,0.000161783,0.014,1.34105e-05,9.14237e-07,-1.56124e-05,0.135925,-0.00540152,-0.0172836,0.000957889,6.53026e-05,-0.00111517,9.7089,-0.385822,-1.23454,0.256082,1.44004,-2.98973
19000,0,-0.0403837,-0.0488314,7.51019e-06,0.0131481,0.014,2.24214e-05,1.67892e-05,-3.90982e-05,0.135939,-0.00405705,-0.0176929,0.00160153,0.00119923,-0.00279273,9.70993,-0.289789,-1.26378,0.256497,1.44,-2.98931
19100,0,-0.0464136,-0.0459181,-2.2471e-05,-0.00366036,0.014,1.4529e-05,2.15008e-05,2.01862e-05,0.135478,-0.0031838,-0.0174866,0.00103779,0.00153577,0.00144187,9.67703,-0.227414,-1.24904,0.257515,1.43999,-2.98829
19200,0,-0.0387741,-0.0461694,-1.31726e-05,-0.0022969,0.014,-2.48236e-05,1.9966e-05,7.40943e-05,0.135678,-0.00433417,-0.0175293,-0.00177311,0.00142614,0.00529245,9.69128,-0.309584,-1.2521,0.2575,1.44003,-2.98832
19300,0,-0.0467611,-0.0462857,-1.5974e-05,-0.00149224,0.014,-7.12797e-06,2.73984e-05,3.60127e-05,0.135953,-0.00519037,-0.0169374,-0.000509141,0.00195703,0.00257234,9.71095,-0.37074,-1.20982,0.256886,1.43998,-2.98899
19400,0,-0.0486171,-0.0474649,5.72205e-06,0.00516857,0.014,1.38583e-05,1.60492e-05,-1.60249e-05,0.136031,-0.0051466,-0.0168504,0.000989879,0.00114637,-0.00114463,9.71651,-0.367614,-1.2036,0.256557,1.43999,-2.98929
19500,0,-0.0558361,-0.046767,-1.51396e-05,0.00146563,0.014,6.48944e-07,4.40113e-05,-2.83534e-05,0.135734,-0.00394824,-0.0166837,4.63532e-05,0.00314366,-0.00202524,9.69526,-0.282017,-1.1917,0.256967,1.44008,-2.98888
19600,0,-0.047695,-0.0468648,1.49012e-06,0.0017264,0.014,8.53008e-07,-1.14027e-05,4.9592e-05,0.13546,-0.00371718,-0.01567,6.09291e-05,-0.000814479,0.00354229,9.67573,-0.265513,-1.11929,0.257392,1.43996,-2.9884
19700,0,-0.056631,-0.0473529,-1.19209e-07,0.00475879,0.014,-1.65369e-05,-1.8213e-05,6.88954e-05,0.135889,-0.00462156,-0.0166831,-0.00118121,-0.00130093,0.0049211,9.70631,-0.330111,-1.19165,0.257239,1.44004,-2.98855
19800,0,-0.0554874,-0.0457055,-2.57492e-05,-0.00454699,0.014,-3.16033e-06,-1.23863e-05,5.29924e-06,0.136137,-0.00614553,-0.0172691,-0.000225737,-0.000884732,0.000378517,9.72408,-0.438966,-1.2335,0.25614,1.44008,-2.98968
19900,0,-0.0416347,-0.0470757,-2.02656e-06,0.00323886,0.014,1.88421e-05,-2.11498e-05,-4.98171e-05,0.135722,-0.00474536,-0.0166609,0.00134586,-0.0015107,-0.00355836,9.69439,-0.338954,-1.19007,0.256397,1.44007,-2.98941
20000,0,-0.0403243,-0.0482195,-5.96046e-07,0.0101828,0.014,3.10558e-06,-4.19421e-05,5.77545e-06,0.135448,-0.00346053,-0.0162115,0.000221827,-0.00299586,0.000412532,9.67484,-0.247181,-1.15797,0.257303,1.43999,-2.98852
20100,0,-0.0511792,-0.0459072,-1.38283e-05,-0.00338471,0.014,-1.5307e-05,-6.29138e-05,6.05025e-05,0.13585,-0.00485305,-0.0172125,-0.00109335,-0.00449384,0.00432161,9.70358,-0.346646,-1.22947,0.257054,1.44,-2.98876
20200,0,-0.0532564,-0.0476675,3.27826e-06,0.00688964,0.014,-3.79318e-06,-1.59116e-05,-1.13502e-05,0.136083,-0.00517764,-0.0172657,-0.000270941,-0.00113654,-0.000810731,9.72022,-0.369831,-1.23326,0.256481,1.44005,-2.98936
20300,0,-0.0525696,-0.0467889,-4.41074e-06,0.0018158,0.014,2.29206e-06,-4.41587e-05,-1.12437e-06,0.135553,-0.00407794,-0.0163093,0.000163719,-0.00315419,-8.03121e-05,9.68236,-0.291281,-1.16495,0.256416,1.43994,-2.98941
20400,0,-0.0291559,-0.0453577,-3.20673e-05,-0.00616378,0.014,-9.14968e-06,-8.59428e-05,4.24578e-05,0.135739,-0.00424108,-0.0165849,-0.000653548,-0.00613877,0.0030327,9.69561,-0.302934,-1.18464,0.256755,1.4399,-2.98907
20500,0,-0.042088,-0.0459703,-2.54512e-05,-0.00253535,0.014,-3.68527e-06,-4.64273e-05,4.75374e-05,0.135585,-0.00606792,-0.0155726,-0.000263233,-0.00331624,0.00339553,9.68466,-0.433423,-1.11232,0.256602,1.4399,-2.98926
20600,0,-0.0461543,-0.047308,-8.52346e-06,0.0052207,0.014,-1.42229e-05,-3.18997e-05,5.04296e-06,0.135721,-0.00585052,-0.0161162,-0.00101592,-0.00227855,0.000360211,9.69436,-0.417894,-1.15116,0.25648,1.43992,-2.98939
20700,0,-0.0369247,-0.0456869,-2.51532e-05,-0.00410742,0.014,9.24892e-06,-3.61781e-05,-2.1635e-05,0.135679,-0.00459041,-0.0161978,0.000660637,-0.00258415,-0.00154536,9.69139,-0.327886,-1.15699,0.256784,1.43989,-2.98908
20800,0,-0.0542436,-0.0451399,-1.54972e-05,-0.00757939,0.014,9.30486e-06,-4.53029e-05,2.8164e-07,0.135712,-0.00413298,-0.0169257,0.000664633,-0.00323592,2.01171e-05,9.69375,-0.295213,-1.20898,0.256648,1.4399,-2.9892
20900,0,-0.0411364,-0.0478531,-1.40071e-05,0.00879699,0.014,6.53697e-06,-4.59189e-05,3.29255e-05,0.135864,-0.00443805,-0.0174652,0.000466926,-0.00327992,0.00235182,9.70454,-0.317004,-1.24752,0.256641,1.43993,-2.98921
21000,0,-0.0636367,-0.045024,-3.52263e-05,-0.0076837,0.014,-3.0934e-05,-5.35938e-06,7.57913e-06,0.135761,-0.00479166,-0.0178371,-0.00220957,-0.000382813,0.000541366,9.69719,-0.342261,-1.27407,0.256418,1.44005,-2.98942
21100,0,-0.0409684,-0.0455418,-3.3915e-05,-0.00452465,0.014,8.07246e-06,-2.07554e-05,-2.58946e-05,0.135841,-0.0042313,-0.0173024,-0.00105644,-0.000843339,0.000443596,9.70209,-0.301432,-1.23712,0.256518,1.44006,-2.98932
21200,0,-0.0624286,-0.0454331,-1.90139e-05,-0.00544108,0.014,-5.11835e-06,-4.04177e-05,2.44593e-05,0.135651,-0.00407941,-0.0169396,-0.000365596,-0.00288698,0.00174709,9.68932,-0.291386,-1.20997,0.257534,1.43994,-2.9883
21300,0,-0.0342372,-0.0442022,-3.12924e-05,-0.0125489,0.014,-2.65501e-06,-2.65108e-05,1.71508e-05,0.135928,-0.00494568,-0.0174111,-0.000189644,-0.00189363,0.00122506,9.7091,-0.353262,-1.24365,0.257141,1.44,-2.98875
21400,0,-0.0470013,-0.045691,-2.01464e-05,-0.00377214,0.014,2.01956e-05,-2.33479e-05,-2.41186e-05,0.135972,-0.00495907,-0.0175598,0.00144254,-0.00166771,-0.00172276,9.71231,-0.354219,-1.25427,0.256994,1.4401,-2.98893
21500,0,-0.053068,-0.0457786,-1.71065e-05,-0.00325805,0.014,1.30702e-05,-4.43854e-05,8.92469e-06,0.135262,-0.00435236,-0.0168135,0.000933586,-0.00317039,0.000637478,9.6616,-0.310883,-1.20096,0.257221,1.43991,-2.98866
21600,0,-0.0497688,-0.045241,-3.20673e-05,-0.00611161,0.014,-1.33458e-05,-7.59156e-05,7.58061e-06,0.13579,-0.00565084,-0.0195546,-0.000953274,-0.00542254,0.000541472,9.69925,-0.403631,-1.39676,0.256515,1.44023,-2.98939
21700,0,-0.0594136,-0.0474212,-9.11951e-06,0.00657673,0.014,2.15439e-05,-2.06871e-05,-5.58773e-05,0.135938,-0.00427743,-0.0194002,0.00153885,-0.00147765,-0.00399123,9.70983,-0.305531,-1.38573,0.256571,1.44026,-2.98933
21800,0,-0.0335804,-0.0465474,-1.42455e-05,0.00148798,0.014,2.83435e-05,-3.26126e-06,6.62679e-06,0.135316,-0.00327014,-0.0188419,0.00202453,-0.000232947,0.000473342,9.66546,-0.233582,-1.34585,0.25724,1.44023,-2.98864
21900,0,-0.050137,-0.046061,-2.21133e-05,-0.00119423,0.014,-2.72378e-05,-6.51236e-05,4.79545e-05,0.135623,-0.00337716,-0.0185278,-0.00194556,-0.00465169,0.00342532,9.68739,-0.241226,-1.32342,0.257322,1.44021,-2.98854
22000,0,-0.0652109,-0.0450827,-2.37226e-05,-0.00698333,0.014,-2.76224e-05,-2.30626e-05,4.99802e-05,0.136062,-0.00490577,-0.0189962,-0.00197303,-0.00164733,0.00357001,9.71873,-0.350412,-1.35687,0.256712,1.4403,-2.98915
22100,0,-0.0482118,-0.0466078,-1.34706e-05,0.00202442,0.014,1.34324e-05,1.95421e-06,-1.58304e-05,0.135704,-0.00534791,-0.0186287,0.000959459,0.000139586,-0.00113074,9.69315,-0.381994,-1.33062,0.256362,1.44031,-2.9895
22200,0,-0.0437387,-0.0468395,-3.57628e-06,0.00324631,0.014,-1.93126e-06,4.67467e-06,-8.8318e-06,0.135356,-0.00420437,-0.0176667,-0.000137947,0.000333905,-0.000630843,9.66828,-0.300312,-1.26191,0.256549,1.44024,-2.9893
22300,0,-0.0377511,-0.0458852,-2.24113e-05,-0.00202125,0.014,-3.14433e-05,5.43666e-06,3.13382e-05,0.135865,-0.00394175,-0.0181144,-0.00224595,0.000388333,0.00223844,9.70462,-0.281554,-1.29388,0.256704,1.44031,-2.98913
22400,0,-0.0367972,-0.0471284,-2.5034e-06,0.0050866,0.014,-1.54997e-05,2.67811e-05,3.41894e-05,0.136056,-0.00404746,-0.0178011,-0.00110712,0.00191293,0.0024421,9.7183,-0.289104,-1.27151,0.256571,1.44027,-2.98926
22500,0,-0.0538858,-0.0465067,-6.07967e-06,0.00148797,0.014,-3.24908e-06,-2.22686e-06,2.93194e-05,0.135475,-0.00498641,-0.0173383,-0.000232077,-0.000159061,0.00209425,9.67677,-0.356173,-1.23845,0.256553,1.44019,-2.98929
22600,0,-0.045383,-0.0470049,9.05991e-06,0.00419998,0.014,1.95705e-06,3.49267e-05,1.5821e-05,0.136503,-0.00382163,-0.0173976,0.000139789,0.00249477,0.00113007,9.7502,-0.272973,-1.24269,0.256462,1.44018,-2.98935
22700,0,-0.0429374,-0.0464121,-8.04663e-06,0.00106329,0.014,3.43116e-05,1.95726e-05,2.48387e-05,0.135875,-0.00406873,-0.0162729,0.00245083,0.00139804,0.00177419,9.70533,-0.290624,-1.16235,0.256517,1.44003,-2.98928
22800,0,-0.0475525,-0.0469833,5.36442e-07,0.00436389,0.014,-2.9808e-05,7.96146e-06,4.10014e-05,0.134925,-0.00573998,-0.0163442,-0.00212914,0.000568676,0.00292867,9.63753,-0.409998,-1.16744,0.256548,1.43983,-2.98924
22900,0,-0.0323037,-0.0458028,-1.68681e-05,-0.00228203,0.014,-9.49708e-06,6.73996e-05,-2.35047e-06,0.135553,-0.00527257,-0.0158225,-0.000678363,0.00481426,-0.000167891,9.68237,-0.376612,-1.13018,0.256249,1.44006,-2.98953
23000,0,-0.041044,-0.0460916,-1.42455e-05,-0.000531135,0.014,-1.69232e-07,-3.62345e-06,9.61088e-06,0.136273,-0.00422041,-0.015461,-1.2088e-05,-0.000258818,0.000686492,9.73378,-0.301458,-1.10436,0.256225,1.44016,-2.98956
23100,0,-0.0352967,-0.0446558,-2.83122e-05,-0.00880127,0.014,9.61327e-06,-6.10392e-05,3.66029e-05,0.1357,-0.00508286,-0.0156009,0.000686662,-0.00435994,0.00261449,9.69286,-0.363061,-1.11435,0.256052,1.44015,-2.98975
23200,0,-0.0630708,-0.0461586,-8.64267e-06,-0.000113894,0.014,1.64257e-05,-4.77965e-05,1.85366e-06,0.135339,-0.00611296,-0.0169163,0.00117326,-0.00341404,0.000132404,9.66707,-0.43664,-1.20831,0.255725,1.44019,-2.99005
23300,0,-0.0502262,-0.045719,-1.51992e-05,-0.00258004,0.014,6.3518e-06,-4.81784e-06,-9.60823e-06,0.136106,-0.00455509,-0.0168272,0.0004537,-0.000344132,-0.000686302,9.72183,-0.325364,-1.20194,0.256155,1.44021,-2.98963
23400,0,-0.0463112,-0.0459648,-1.3113e-05,-0.00108992,0.014,2.60154e-05,-3.33303e-05,2.12436e-08,0.13554,-0.00403838,-0.0165374,0.00185824,-0.00238074,1.5174e-06,9.68139,-0.288456,-1.18125,0.256392,1.44021,-2.9894
23500,0,-0.0477542,-0.043908,-3.29614e-05,-0.0129959,0.014,-1.66345e-05,-1.69967e-05,2.07629e-05,0.135471,-0.00456466,-0.0176173,-0.00118818,-0.00121405,0.00148306,9.6765,-0.326047,-1.25838,0.256638,1.4402,-2.98915
23600,0,-0.0534809,-0.0442743,-4.85182e-05,-0.0103957,0.014,-3.23673e-05,-2.65753e-05,2.50846e-05,0.136307,-0.00382747,-0.017653,-0.00231195,-0.00189824,0.00179176,9.73619,-0.273391,-1.26093,0.256642,1.44024,-2.98916
23700,0,-0.0275014,-0.046149,-1.26958e-05,0.000161783,0.014,-4.04282e-05,-4.52913e-05,2.54082e-05,0.135763,-0.00473965,-0.0167179,-0.00288773,-0.00323509,0.00181487,9.69734,-0.338546,-1.19413,0.256091,1.44023,-2.98969
23800,0,-0.0484216,-0.0451206,-2.70009e-05,-0.00564223,0.014,-1.61617e-05,-3.39031e-05,8.82641e-06,0.136728,-0.0032785,-0.0161257,-0.00115441,-0.00242165,0.000630458,9.76626,-0.234179,-1.15183,0.255751,1.44023,-2.99007
23900,0,-0.0581912,-0.048085,1.5974e-05,0.0113078,0.014,3.54109e-05,-1.46842e-05,1.18946e-05,0.135321,-0.0052374,-0.0172098,0.00252935,-0.00104887,0.000849615,9.66581,-0.3741,-1.22927,0.256009,1.44027,-2.98982
24000,0,-0.0340407,-0.0455207,-1.99676e-05,-0.00328785,0.014,-3.23717e-05,7.91291e-05,-2.61043e-05,0.136561,-0.00368048,-0.0174254,-0.00231227,0.00565208,-0.00186459,9.75434,-0.262891,-1.24467,0.255867,1.44055,-2.98991
24100,0,-0.0621055,-0.0471931,3.03984e-06,0.0063532,0.014,1.24708e-05,-2.20713e-05,4.64948e-05,0.136249,-0.00275219,-0.0159038,0.000890773,-0.00157652,0.00332106,9.73207,-0.196585,-1.13599,0.256405,1.44047,-2.98933
24200,0,-0.0602217,-0.0466927,-1.28746e-05,0.00375294,0.014,0.000103127,-0.000111424,-2.16375e-05,0.134527,-0.00725583,-0.0156643,0.00736625,-0.00795882,-0.00154554,9.60908,-0.518274,-1.11888,0.254986,1.44083,-2.991
24300,0,-0.039771,-0.0458603,2.32458e-06,-0.00155932,0.014,1.08113e-05,-0.000126574,-8.5684e-05,0.13413,-0.00880846,-0.0155891,0.000772235,-0.009041,-0.00612028,9.58071,-0.629176,-1.11351,0.2546,1.44062,-2.99117
24400,0,-0.0459543,-0.0463945,-1.46031e-05,0.00208401,0.014,-3.4849e-05,-7.96089e-05,-5.88475e-05,0.135498,-0.00277896,-0.0141564,-0.00248922,-0.00568635,-0.00420339,9.67844,-0.198497,-1.01117,0.255562,1.44048,-2.99014
24500,0,-0.0459249,-0.0461253,-1.43051e-06,0.000228815,0.014,-1.85396e-06,-0.000118044,6.53171e-05,0.136394,-0.00184678,-0.0139657,-0.000132426,-0.0084317,0.00466551,9.74241,-0.131913,-0.997548,0.256641,1.44032,-2.98904
24600,0,-0.040446,-0.0457798,-1.09673e-05,-0.00159658,0.014,2.2638e-05,-8.92399e-05,4.94358e-05,0.135869,-0.00722517,-0.0159895,0.001617,-0.00637428,0.00353113,9.7049,-0.516084,-1.1421,0.256109,1.44036,-2.98958
24700,0,-0.0435039,-0.0457966,-1.30534e-05,-0.00142522,0.014,-2.45073e-06,1.89129e-05,-4.50356e-06,0.136608,-0.00568036,-0.0152429,-0.000175052,0.00135092,-0.000321683,9.75774,-0.40574,-1.08878,0.255593,1.44025,-2.99012
24800,0,-0.0462373,-0.0458517,2.08616e-06,-0.00137307,0.014,4.47547e-05,-6.21317e-06,-3.78787e-05,0.135987,-0.00371706,-0.0144003,0.00319676,-0.000443798,-0.00270562,9.71339,-0.265504,-1.02859,0.25604,1.44015,-2.98966
24900,0,-0.0563538,-0.0451145,1.13249e-06,-0.00575401,0.014,9.7797e-06,-5.77197e-05,3.27831e-05,0.135281,-0.00423287,-0.0151592,0.00069855,-0.00412284,0.00234165,9.66296,-0.302348,-1.0828,0.256552,1.44011,-2.98911
25000,0,-0.0513824,-0.0452315,-4.29153e-06,-0.00491954,0.014,-2.46564e-05,-5.83876e-05,3.46201e-05,0.135578,-0.0055508,-0.0165266,-0.00176117,-0.00417055,0.00247287,9.68413,-0.396486,-1.18047,0.256015,1.44018,-2.98967
25100,0,-0.0437183,-0.0463429,2.19941e-05,0.00118994,0.014,-1.42e-05,-1.92656e-05,8.70982e-06,0.136358,-0.00435487,-0.016225,-0.00101428,-0.00137611,0.00062213,9.73984,-0.311062,-1.15893,0.25587,1.44027,-2.98985
25200,0,-0.042167,-0.0466365,9.89437e-06,0.0032016,0.014,-4.52071e-06,-3.30021e-05,-1.80002e-05,0.136393,-0.003551,-0.0165544,-0.000322908,-0.0023573,-0.00128573,9.74235,-0.253643,-1.18246,0.255891,1.44026,-2.98985
25300,0,-0.0479565,-0.0470024,1.72853e-06,0.00560069,0.014,2.41951e-05,3.2706e-05,-4.49158e-05,0.135723,-0.00382893,-0.0175169,0.00172822,0.00233614,-0.00320827,9.6945,-0.273495,-1.2512,0.255783,1.44041,-2.98994
25400,0,-0.0463486,-0.0458247,4.70877e-06,-0.00158912,0.014,-1.64684e-05,6.11146e-05,-1.87539e-05,0.135522,-0.0032648,-0.0162397,-0.00151117,0.00168531,0.000796369,9.64974,-0.251134,-1.15707,0.256019,1.44065,-2.98965
25500,0,-0.0470421,-0.0460973,-7.92742e-06,0.000362929,0.014,-9.88591e-06,-0.000116446,0.000123069,0.136029,-0.00415809,-0.0152672,-0.000706137,-0.0083176,0.00879061,9.71637,-0.297007,-1.09051,0.255789,1.44058,-2.98988
25600,0,-0.0524636,-0.0462025,-5.126e-06,0.000951519,0.014,5.85981e-06,-2.50837e-05,-2.0746e-05,0.13651,-0.00729934,-0.0172381,0.000418558,-0.00179169,-0.00148186,9.75074,-0.521381,-1.23129,0.254149,1.4409,-2.99164
25700,0,-0.0596907,-0.0440689,-1.18017e-05,-0.0117368,0.014,3.47197e-05,2.07685e-05,-9.84321e-05,0.135412,-0.00358298,-0.0148643,0.00247998,0.00148347,-0.00703086,9.67227,-0.255927,-1.06173,0.255451,1.44071,-2.99029
25800,0,-0.0255741,-0.0458799,-3.57628e-07,-0.00106759,0.014,-2.17535e-05,-0.000109839,9.00548e-05,0.135172,-0.00242191,-0.0141899,-0.00155382,-0.00784562,0.00643249,9.65512,-0.172994,-1.01357,0.256617,1.44048,-2.98906
25900,0,-0.0338921,-0.0463905,-2.44379e-06,0.00207655,0.014,-2.84822e-05,-0.000108965,9.76168e-05,0.136278,-0.00653308,-0.0164077,-0.00203444,-0.00778323,0.00697263,9.73417,-0.466648,-1.17198,0.2553,1.44057,-2.99042
26000,0,-0.0340057,-0.0470975,1.38283e-05,0.00598811,0.014,3.8324e-05,-3.7627e-05,-7.5842e-05,0.135952,-0.00725259,-0.0175586,0.00273743,-0.00268764,-0.00541729,9.71088,-0.518042,-1.25419,0.254278,1.44059,-2.99148
26100,0,-0.0406707,-0.0453755,-3.39746e-06,-0.00401802,0.014,4.11553e-06,1.36541e-05,-9.32629e-05,0.136026,-0.00380665,-0.0161882,0.000293966,0.000975291,-0.00666163,9.71613,-0.271904,-1.1563,0.255355,1.44042,-2.99036
26200,0,-0.0335605,-0.0484059,2.22325e-05,0.0136622,0.014,-9.85931e-06,-4.85821e-05,2.60993e-05,0.13535,-0.0025073,-0.0171533,-0.000704236,-0.00347015,0.00186423,9.66782,-0.179093,-1.22523,0.256502,1.44045,-2.98918
26300,0,-0.0389921,-0.0457759,1.43051e-06,-0.0017307,0.014,-3.40811e-05,-4.31415e-05,6.42741e-05,0.135932,-0.00417698,-0.0179906,-0.00243436,-0.00308154,0.00459101,9.70942,-0.298356,-1.28504,0.256037,1.44048,-2.98967
26400,0,-0.0375867,-0.0471096,6.79493e-06,0.00618927,0.014,1.17761e-05,1.91645e-05,1.44976e-05,0.136191,-0.00538417,-0.0177274,0.000841151,0.00136889,0.00103554,9.72792,-0.384583,-1.26624,0.255399,1.4405,-2.99034
26500,0,-0.040869,-0.0456956,-9.35793e-06,-0.00197657,0.014,8.363e-06,2.14009e-05,-3.69708e-05,0.135949,-0.00442958,-0.0172681,0.000597357,0.00152863,-0.00264077,9.71067,-0.316398,-1.23343,0.254958,1.44057,-2.99077
26600,0,-0.0542302,-0.0448625,-1.19805e-05,-0.0069312,0.014,-1.52636e-05,-6.49524e-06,1.60635e-05,0.135175,-0.00387611,-0.0159791,-0.00109026,-0.000463945,0.00114739,9.65536,-0.276865,-1.14137,0.255763,1.4405,-2.98991
26700,0,-0.0612436,-0.0475597,-4.11272e-06,0.00916951,0.014,1.11428e-05,-7.51425e-05,8.10344e-05,0.134838,-0.00542306,-0.0155532,0.000795912,-0.00536732,0.00578817,9.63127,-0.387362,-1.11094,0.255648,1.44033,-2.99
26800,0,-0.0305047,-0.0461602,8.52346e-06,0.000474679,0.014,-4.47838e-05,-2.11472e-05,5.33769e-05,0.135547,-0.00542374,-0.0154408,-0.00319884,-0.00151052,0.00381264,9.6819,-0.38741,-1.10291,0.25496,1.44042,-2.99073
26900,0,-0.0421552,-0.0459822,2.38419e-07,-0.000419389,0.014,1.34393e-05,4.66207e-06,-4.12642e-05,0.136218,-0.00552013,-0.0163577,0.00095995,0.000333005,-0.00294744,9.72987,-0.394295,-1.16841,0.254234,1.44075,-2.99153
27000,0,-0.0637974,-0.0459796,8.46386e-06,-0.000635451,0.014,8.408e-06,-4.02838e-05,-5.66505e-05,0.135319,-0.00380719,-0.0164812,0.000600571,-0.00287742,-0.00404647,9.66568,-0.271942,-1.17723,0.255213,1.44062,-2.99045
27100,0,-0.0590139,-0.0445987,-1.63317e-05,-0.0083915,0.014,-3.31871e-05,-3.41612e-05,5.03509e-05,0.13532,-0.00285129,-0.0163493,-0.0023705,-0.00244009,0.0035965,9.66572,-0.203664,-1.16781,0.255913,1.44055,-2.98971
27200,0,-0.0395654,-0.045566,-1.87755e-05,-0.00248319,0.014,-6.11211e-06,-7.68492e-05,8.7809e-05,0.13628,-0.0050097,-0.0175405,-0.000436579,-0.00548923,0.00627207,9.73425,-0.357836,-1.25289,0.255377,1.44051,-2.99027
27300,0,-0.0471157,-0.0462254,-2.38419e-07,0.00111544,0.014,8.04189e-06,-1.75235e-05,-2.34931e-05,0.136293,-0.00587652,-0.017807,0.000574421,-0.00125168,-0.00167808,9.73521,-0.419751,-1.27193,0.254564,1.44053,-2.99114
27400,0,-0.0472388,-0.0454625,-2.98023e-06,-0.00343686,0.014,1.51204e-05,-1.17415e-05,-4.97443e-05,0.135763,-0.00368948,-0.0171618,0.00108003,-0.000838678,-0.00355317,9.69734,-0.263534,-1.22585,0.255238,1.44047,-2.99044
27500,0,-0.0471784,-0.045745,4.17233e-06,-0.00190204,0.014,1.55366e-06,-2.71883e-06,-1.77232e-05,0.135391,-0.00299777,-0.0166214,0.000110975,-0.000194202,-0.00126594,9.67077,-0.214126,-1.18725,0.256292,1.4404,-2.98932
27600,0,-0.041234,-0.0459764,-1.12057e-05,-0.000166054,0.014,-1.55697e-05,-7.63174e-05,8.08183e-05,0.135635,-0.00412523,-0.0171393,-0.00111212,-0.00545124,0.00577274,9.68823,-0.294659,-1.22424,0.256046,1.44033,-2.98955
27700,0,-0.0462036,-0.0449852,-2.54512e-05,-0.0057987,0.014,-8.0154e-06,-5.14406e-05,3.43305e-05,0.136255,-0.00614067,-0.0181535,-0.000572529,-0.00367433,0.00245218,9.73252,-0.438619,-1.29668,0.255246,1.4404,-2.99039
27800,0,-0.0516864,-0.0451258,-2.31266e-05,-0.00497913,0.014,4.1464e-05,-2.67482e-05,-6.392e-05,0.135643,-0.00469139,-0.0183837,0.00296171,-0.00191058,-0.00456571,9.68881,-0.335099,-1.31312,0.255114,1.44048,-2.99054
27900,0,-0.0584383,-0.0459529,3.15905e-06,-0.000560938,0.014,0.000215986,1.68151e-05,-5.33223e-05,0.135555,-0.00329071,-0.0156872,0.0154276,0.00120108,-0.00380873,9.68249,-0.235051,-1.12052,0.256411,1.44038,-2.98922
28000,0,-0.0462355,-0.0456303,5.60284e-06,-0.00255025,0.014,-4.68382e-06,-3.1808e-05,9.77642e-05,0.133192,-0.00722682,-0.0145916,-0.000334559,-0.002272,0.00698316,9.51374,-0.516201,-1.04226,0.256894,1.44027,-2.98859
28100,0,-0.0425918,-0.0481495,3.74317e-05,0.011889,0.014,-2.45249e-05,-7.61842e-05,6.48005e-05,0.135539,-0.00653396,-0.0165308,-0.00175178,-0.00544173,0.00462861,9.68137,-0.466712,-1.18077,0.255955,1.44025,-2.98963
28200,0,-0.0388239,-0.0462607,-4.17233e-07,0.00128679,0.014,-2.67744e-05,-5.87618e-05,-1.6358e-05,0.136001,-0.00709932,-0.016722,-0.00191245,-0.00419727,-0.00116843,9.71434,-0.507094,-1.19443,0.255056,1.44026,-2.99056
28300,0,-0.057966,-0.0460627,5.1856e-06,-6.92124e-05,0.014,3.45662e-05,-4.52196e-05,-9.29032e-05,0.135144,-0.00394948,-0.0169494,0.00246901,-0.00322997,-0.00663594,9.65316,-0.282106,-1.21067,0.255923,1.44023,-2.98972
28400,0,-0.04482,-0.0455379,-3.75509e-06,-0.0030569,0.014,-2.66014e-05,-5.07943e-05,1.33158e-05,0.135291,-0.00195215,-0.0164745,-0.0019001,-0.00362816,0.000951127,9.66366,-0.139439,-1.17675,0.257136,1.44012,-2.98841
28500,0,-0.0351288,-0.045496,1.12653e-05,-0.0036604,0.014,-4.03383e-05,-6.26185e-05,9.83337e-05,0.136046,-0.00388443,-0.0174015,-0.00288131,-0.00447275,0.00702384,9.7176,-0.277459,-1.24297,0.256785,1.44012,-2.98885
28600,0,-0.0443183,-0.0446288,-1.19805e-05,-0.00839896,0.014,1.29013e-05,-1.0076e-05,2.68633e-05,0.136236,-0.00628568,-0.0190739,0.000921519,-0.000719716,0.00191881,9.73116,-0.448977,-1.36242,0.255811,1.44032,-2.9899
28700,0,-0.0442379,-0.0449095,-1.42455e-05,-0.00667788,0.014,6.15316e-06,-4.15026e-05,-3.45114e-05,0.135839,-0.0048882,-0.0198079,0.000439511,-0.00296447,-0.0024651,9.70278,-0.349157,-1.41485,0.256046,1.44025,-2.98967
28800,0,-0.0468469,-0.0466068,6.31809e-06,0.00307494,0.014,2.96855e-05,-7.76269e-05,-5.94547e-05,0.135938,-0.00294488,-0.0184559,0.00212039,-0.00554478,-0.00424677,9.70986,-0.210349,-1.31828,0.256993,1.43992,-2.98874
28900,0,-0.0453014,-0.0451302,-1.18017e-05,-0.00543363,0.014,4.02657e-05,-8.90222e-05,1.92441e-05,0.135409,-0.00280481,-0.019759,0.00287612,-0.00635873,0.00137458,9.67208,-0.200344,-1.41136,0.257481,1.44,-2.98829
29000,0,-0.0471844,-0.0461813,-8.34465e-07,0.000631146,0.014,2.79601e-05,1.96884e-06,1.82572e-05,0.135966,-0.00429409,-0.0208198,0.00199715,0.000140631,0.00130408,9.71184,-0.306721,-1.48713,0.256938,1.44011,-2.98887
29100,0,-0.0517837,-0.0454506,-5.96046e-08,-0.00380195,0.014,4.24976e-05,5.70257e-05,-3.45709e-07,0.135626,-0.00329601,-0.0184476,0.00303555,0.00407326,-2.46935e-05,9.68756,-0.235429,-1.31768,0.257572,1.43988,-2.98823
29200,0,-0.0664509,-0.0461597,8.88109e-06,0.000266076,0.014,-1.26233e-05,3.96845e-05,7.3698e-05,0.135553,-0.00358137,-0.0157619,-0.000901667,0.0028346,0.00526414,9.68236,-0.255812,-1.12585,0.257526,1.43994,-2.98825
29300,0,-0.0389628,-0.0460986,5.96046e-08,9.47106e-05,0.014,4.74976e-06,4.0525e-05,6.2892e-05,0.135713,-0.00635991,-0.0161741,0.000339269,0.00289464,0.00449228,9.69381,-0.45428,-1.1553,0.256574,1.44009,-2.98922
29400,0,-0.0544862,-0.0463903,-1.54972e-06,0.0019052,0.014,1.11917e-05,-1.6911e-05,-1.37643e-05,0.136039,-0.00633058,-0.0162279,0.000799407,-0.00120793,-0.000983163,9.71704,-0.452184,-1.15914,0.255994,1.44005,-2.98982
29500,0,-0.0407875,-0.0453152,4.11272e-06,-0.00469601,0.014,2.29627e-06,-1.37382e-05,-5.41029e-05,0.136125,-0.00359856,-0.0160476,0.00016402,-0.000981302,-0.00386449,9.72324,-0.25704,-1.14625,0.256353,1.44005,-2.98942
29600,0,-0.0491272,-0.0447516,-2.44379e-06,-0.00798917,0.014,5.80118e-05,2.82697e-05,-3.60421e-05,0.135252,-0.00330229,-0.0149551,0.0041437,0.00201926,-0.00257444,9.66089,-0.235878,-1.06822,0.256903,1.44006,-2.98885
29700,0,-0.0459495,-0.0462958,-4.17233e-07,0.00125699,0.014,7.91018e-06,-3.51052e-05,7.44474e-05,0.135685,-0.00352544,-0.0149969,0.000565013,-0.00250751,0.00531767,9.6918,-0.251817,-1.07121,0.256951,1.43996,-2.98877
29800,0,-0.0455905,-0.0465522,9.95398e-06,0.00256084,0.014,9.94991e-06,-8.27425e-05,5.20864e-05,0.136385,-0.00664611,-0.0169681,0.000710708,-0.00591018,0.00372046,9.74179,-0.474722,-1.21201,0.255326,1.44012,-2.99045
29900,0,-0.0560242,-0.0470508,1.50204e-05,0.00540697,0.014,3.72488e-05,-2.77295e-06,-6.62332e-05,0.135874,-0.00555572,-0.0171241,0.00266063,-0.000198068,-0.00473095,9.70526,-0.396837,-1.22315,0.255449,1.44006,-2.99033
30000,0,-0.0414699,-0.0464627,8.10623e-06,0.00201695,0.014,6.2633e-06,-3.50625e-05,-2.55956e-05,0.135534,-0.00231529,-0.0169043,0.000447378,-0.00250447,-0.00182826,9.68103,-0.165378,-1.20745,0.256442,1.44,-2.98925
30101,0,-0.049579,-0.0473686,2.44379e-05,0.00710569,0.014,-4.03813e-05,-7.57259e-05,8.09764e-05,0.135776,-0.00284845,-0.0171969,-0.00288438,-0.00540899,0.00578403,9.69826,-0.203461,-1.22835,0.256951,1.43988,-2.98868
30200,0,-0.0523977,-0.0464904,3.63588e-06,0.00227026,0.014,-1.43233e-06,-6.58587e-05,5.78684e-05,0.136337,-0.00594183,-0.0187295,-0.000102309,-0.00470419,0.00413346,9.73836,-0.424417,-1.33782,0.256164,1.43994,-2.98957
30303,0,-0.0540879,-0.0448765,-1.66893e-05,-0.00704296,0.014,5.21169e-06,-3.9841e-05,1.8359e-05,0.135896,-0.00557172,-0.0163065,0.000372264,-0.00284579,0.00131136,9.70682,-0.39798,-1.16475,0.256436,1.43932,-2.98928
30401,0,-0.0424465,-0.0474535,2.54512e-05,0.00753782,0.014,4.34061e-06,-3.98733e-05,7.39943e-06,0.135704,-0.0041286,-0.0152935,0.000310044,-0.00284809,0.00052853,9.69312,-0.2949,-1.09239,0.256989,1.43901,-2.98873
30501,0,-0.0347633,-0.0464102,3.69549e-06,0.00171891,0.014,-9.54596e-06,-6.85238e-05,3.29384e-05,0.135868,-0.004627,-0.0167477,-0.000681854,-0.00489456,0.00235274,9.70487,-0.3305,-1.19626,0.256918,1.43899,-2.9888
30600,0,-0.0436485,-0.0457925,8.22544e-06,-0.00212558,0.014,-1.70736e-07,-3.55448e-05,1.27848e-05,0.135622,-0.00482683,-0.0167913,-1.21954e-05,-0.00253891,0.000913197,9.68731,-0.344774,-1.19938,0.256938,1.4388,-2.98877
30700,0,-0.0459942,-0.0456019,-5.126e-06,-0.00298985,0.014,-7.64617e-06,-0.000211158,8.3107e-05,0.135753,-0.00494981,-0.0167684,-0.000546155,-0.0150827,0.00593621,9.69667,-0.353558,-1.19774,0.257634,1.43808,-2.98809
30801,0,-0.0522796,-0.0465805,-1.0848e-05,0.00300786,0.014,-8.06411e-06,-1.88035e-05,-4.44465e-05,0.135973,-0.00522775,-0.0178928,-0.000576008,-0.00134311,-0.00317475,9.71239,-0.373411,-1.27806,0.257177,1.43806,-2.98858
30901,0,-0.0458512,-0.0474101,1.8239e-05,0.00733666,0.014,4.06191e-06,-4.52675e-05,-9.73361e-06,0.135585,-0.00387286,-0.0174422,0.000290137,-0.00323339,-0.000695258,9.68466,-0.276633,-1.24587,0.257759,1.43806,-2.98803
31003,0,-0.0537074,-0.0463942,4.82798e-06,0.0015103,0.014,-3.07166e-06,-9.49749e-05,5.24993e-05,0.135819,-0.00460511,-0.0183599,-0.000219404,-0.00678392,0.00374995,9.70133,-0.328936,-1.31142,0.258133,1.438,-2.98769
31101,0,-0.047584,-0.0454529,-5.36442e-07,-0.00406273,0.014,-7.52769e-06,-9.2084e-05,1.56803e-05,0.136135,-0.00524047,-0.017609,-0.000537692,-0.00657743,0.00112002,9.72389,-0.37432,-1.25779,0.257738,1.43811,-2.98812
31203,0,-0.0442385,-0.0460602,7.7486e-07,-0.000434288,0.014,1.64204e-05,-9.6818e-05,-4.835e-05,0.135991,-0.00529263,-0.0189052,0.00117288,-0.00691557,-0.00345357,9.71366,-0.378045,-1.35037,0.257459,1.43824,-2.98841
31301,0,-0.0421018,-0.0468255,7.21216e-06,0.00401371,0.014,1.49533e-05,-5.63996e-05,-5.01774e-05,0.135514,-0.00361018,-0.0195069,0.00106809,-0.00402854,-0.0035841,9.67955,-0.25787,-1.39335,0.258278,1.43823,-2.98758
31401,0,-0.046332,-0.0466886,9.71556e-06,0.00311218,0.014,-2.362e-05,-6.32083e-05,2.28341e-05,0.135886,-0.00302245,-0.0207086,-0.00168714,-0.00451488,0.00163101,9.70612,-0.21589,-1.47918,0.258426,1.43825,-2.98743
31501,0,-0.0499381,-0.046421,-8.34465e-07,0.00169657,0.014,-5.74437e-06,-1.83454e-05,5.71205e-05,0.136028,-0.00386614,-0.0211647,-0.000410312,-0.00131039,0.00408003,9.71628,-0.276153,-1.51177,0.258867,1.43812,-2.98701
31600,0,-0.0470878,-0.0486272,4.32134e-05,0.0139751,0.014,-5.33061e-06,5.08659e-05,3.98413e-05,0.135753,-0.00385961,-0.0191148,-0.000380758,0.00363328,0.00284581,9.69663,-0.275686,-1.36535,0.259066,1.43793,-2.98678
31701,-1.61363,-0.0417893,-0.045642,-2.5034e-06,-0.00304945,0.014,0.000442778,-1.68284e-05,5.21134e-05,0.134014,-0.0070649,-0.035944,0.031627,-0.00120203,0.00372239,9.57246,-0.504635,-2.56743,0.259244,1.43803,-2.98706
31801,-0.829602,-0.222283,-0.232216,-0.109354,-3.60671,0.014,-0.000541519,-0.00812979,0.00252356,0.126211,-0.021309,0.01273,-0.0386799,-0.580699,0.180254,9.01507,-1.52207,0.909282,0.243218,1.39358,-3.00255
31901,-0.572615,-0.09898,-0.101772,-0.510584,-4.38937,0.014,-0.000182296,-0.00733801,0.00104852,0.1405,-0.0252879,-0.0228926,-0.0130212,-0.524143,0.0748945,10.0357,-1.80628,-1.63519,0.227164,1.3446,-3.01834
32002,-0.529702,-0.145791,-0.136269,-0.92527,-4.18239,0.014,7.85032e-05,-0.00713929,0.000704719,0.137512,0.00852132,-0.0269742,0.00560737,-0.509949,0.0503371,9.82226,0.608666,-1.92673,0.224722,1.29034,-3.02024
32101,-0.460143,-0.143622,-0.154627,-1.33883,-4.07224,0.014,-4.74414e-06,-0.00706474,0.00176967,0.129339,0.00237589,-0.0416005,-0.000338867,-0.504624,0.126405,9.2385,0.169706,-2.97146,0.223116,1.2407,-3.02128
32202,-0.362619,-0.152515,-0.155938,-1.74361,-4.06437,0.014,-0.000122176,-0.00679682,0.00168983,0.128352,-0.0220908,-0.0492509,-0.00872683,-0.485487,0.120702,9.16798,-1.57791,-3.51792,0.216967,1.19206,-3.02735
32301,-0.312492,-0.163778,-0.191183,-2.14348,-3.8529,0.014,-0.000138517,-0.00675772,0.00117189,0.128234,-0.0179637,-0.0516655,-0.00989407,-0.482694,0.0837063,9.15955,-1.28312,-3.69039,0.213509,1.14357,-3.03074
32401,-0.213243,-0.20396,-0.196159,-2.54023,-3.82304,0.014,-4.08348e-05,-0.00672271,0.00115291,0.122506,-0.0132585,-0.0582398,-0.00291677,-0.480194,0.082351,8.75045,-0.947035,-4.15999,0.21242,1.09237,-3.0314
32501,0.112687,-0.152677,-0.160505,-2.92884,-4.03697,0.014,-2.43885e-05,-0.00147,0.00107743,0.102993,-0.00735904,0.0394295,-0.00174203,-0.105,0.0769591,7.35664,-0.525646,2.81639,0.213931,1.05374,-3.02983
32601,-1.274,0.102529,0.112184,-3.07197,0.788474,0.014,-0.000504076,-0.00723074,-0.000848872,0.157427,-0.0686516,-0.206164,-0.0360054,-0.516482,-0.0606337,11.2448,-4.90369,-14.726,0.201928,1.06163,-3.04403
32702,0.13613,-0.214656,-0.21,-3.28831,-3.74,0.014,0.00195784,-0.00192891,-0.00119524,0.0907251,0.0584292,0.0234531,0.139846,-0.13778,-0.0853742,6.48036,4.17351,1.67522,0.215672,1.0122,-3.02735
32801,-1.25526,0.110304,0.135656,-3.40481,1.02002,0.014,-0.0010165,-0.00550127,0.000450806,0.162783,-0.01804,-0.331907,-0.0726072,-0.392948,0.0322004,11.6273,-1.28857,-23.7076,0.205204,1.02931,-3.04012
32903,0.257588,-0.143041,-0.183268,-3.55921,-3.90039,0.014,0.00102237,-0.000800134,0.000587839,0.0922509,0.0757498,0.0297367,0.0730264,-0.0571525,0.0419885,6.58935,5.4107,2.12405,0.216998,0.979183,-3.02473
33001,-1.93167,0.190711,0.21224,-3.58668,3.72656,0.014,2.44088e-05,-0.00283508,-0.00186595,0.215044,-0.0155472,-0.435969,0.00174348,-0.202506,-0.133282,15.3603,-1.11052,-31.1406,0.199554,1.01997,-3.04704
33100,0.322535,-0.133319,-0.166906,-3.69495,-3.99856,0.014,0.00287957,0.000498134,-0.00297749,0.0795036,0.0991925,0.0593168,0.205683,0.035581,-0.212678,5.67883,7.08518,4.23691,0.220324,0.956902,-3.02146
33201,-1.98513,0.163824,0.179047,-3.6424,3.92572,0.014,-0.000309745,-0.00467153,0.000731903,0.199685,-0.0493653,-0.38491,-0.0221247,-0.333681,0.0522788,14.2632,-3.5261,-27.4935,0.201887,1.00965,-3.04383
33301,0.154749,-0.224922,-0.272042,-3.72852,-3.36775,0.014,0.00157,-0.00140362,-0.00132832,0.109704,0.0783473,-0.00623499,0.112143,-0.100259,-0.0948803,7.83601,5.59623,-0.445356,0.214047,0.953305,-3.02769
33401,-1.6816,0.140064,0.154329,-3.79948,2.86887,0.014,-0.000798706,-0.00334633,4.96063e-05,0.184269,0.00991003,-0.256748,-0.0570504,-0.239024,0.00354331,13.1621,0.707859,-18.3391,0.204948,0.974148,-3.03881
33500,0.223162,-0.25406,-0.262156,-3.91121,-3.42707,0.014,-0.000165064,-0.000303299,-0.000405151,0.116201,0.0815745,0.00981943,-0.0117903,-0.0216642,-0.0289393,8.30009,5.82675,0.701388,0.213293,0.940731,-3.02956
33600,-1.97289,0.124033,0.16692,-3.90422,3.99848,0.014,-0.00118182,-0.00577094,-0.000551704,0.198087,-0.0125959,-0.287025,-0.0844156,-0.41221,-0.0394075,14.1491,-0.899706,-20.5018,0.198374,0.959037,-3.04526
33700,-1.98096,-0.205135,-0.197669,-3.99979,-3.81398,0.014,-0.000494041,-0.00893279,-0.00251206,0.123398,0.0617662,-0.109623,-0.0352887,-0.638057,-0.179433,8.81411,4.41187,-7.83022,0.208153,0.896301,-3.0343
33800,-1.98096,-0.206945,-0.217589,-4.38527,-3.69447,0.014,1.87689e-05,-0.0115554,0.00418477,0.112494,0.0527686,-0.119469,0.00134064,-0.825387,0.298912,8.03526,3.76919,-8.53351,0.209619,0.8289,-3.03221
33900,-1.98096,-0.214741,-0.203445,-4.74901,-3.77933,0.014,-7.68206e-05,-0.0104826,0.00291641,0.118666,-0.0278175,-0.110608,-0.00548719,-0.748754,0.208315,8.47615,-1.98696,-7.9006,0.202024,0.751065,-3.04012
34000,0.694601,-0.247323,-0.233933,-5.11981,-3.5964,0.014,-0.000385894,-0.0119767,0.00232145,0.0946038,-0.017956,-0.0846195,-0.0275639,-0.855479,0.165818,6.75741,-1.28257,-6.04425,0.203137,0.664121,-3.03855
34101,-1.08623,0.351484,0.483533,-5.42578,2.0988,0.014,-0.000900799,-0.00674774,-0.0011721,0.1231,0.113491,-0.25173,-0.0643428,-0.481981,-0.0837217,8.79288,8.10652,-17.9807,0.203716,0.614669,-3.03761
34201,0.654869,-0.334894,-0.343256,-5.5404,-2.94046,0.014,-0.000608073,-0.00263749,0.00730036,0.0133844,0.052187,0.0284041,-0.0434338,-0.188392,0.521454,0.956031,3.72764,2.02886,0.213248,0.540302,-3.02146
34301,-1.86388,0.0720895,0.0926871,-5.33244,4.44388,0.014,-0.000732469,-0.00730863,-0.00204448,0.162086,-0.135446,-0.327119,-0.0523192,-0.522045,-0.146034,11.5775,-9.67469,-23.3656,0.189427,0.54333,-3.05509
34402,0.534326,-0.350302,-0.386243,-5.40584,-2.68254,0.014,0.00440617,-0.00209504,-0.00385052,0.0130576,0.118297,0.107767,-0.412346,-0.572666,0.0397946,2.16214,13.44,7.52822,0.208869,0.442814,-3.0238
34502,-1.93567,0.0610977,0.0904444,-5.22588,4.45733,0.014,-0.000192436,-0.0130705,0.000597989,0.130224,-0.0731549,-0.359054,-0.0137454,-0.933606,0.0427135,9.30171,-5.22535,-25.6467,0.198093,0.45915,-3.04666
34602,0.667767,-0.281618,-0.297316,-5.29736,-3.2161,0.014,-0.0012406,-0.00133286,-0.00179272,0.0058097,0.128043,0.0406788,-0.0886145,-0.0952042,-0.128051,0.414979,9.14595,2.90563,0.210121,0.377632,-3.02412
34703,-2.00586,0.0941441,0.0836544,-5.12692,4.49807,0.014,0.000948888,-0.00918015,-0.000202085,0.118383,-0.0783548,-0.395289,0.0677777,-0.655725,-0.0144346,8.45595,-5.59677,-28.2349,0.199634,0.40589,-3.04565
34802,0.723095,-0.215385,-0.249381,-5.19289,-3.50372,0.014,-0.00122295,0.000282739,-0.000949946,-0.0017737,0.132095,0.0408734,-0.0873538,0.0201956,-0.0678533,-0.126693,9.43537,2.91953,0.210312,0.335939,-3.02458
34901,-2.16985,0.0403092,0.0305898,-4.98674,4.81646,0.014,0.000443102,-0.00517324,-0.000468035,0.142855,-0.040715,-0.398228,0.0316501,-0.369517,-0.0334311,10.2039,-2.90821,-28.4448,0.200752,0.375104,-3.04448
35002,0.542514,-0.276862,-0.30819,-5.01113,-3.15086,0.014,-0.000713427,-0.00150226,0.000734142,-0.0207969,0.094291,0.0176635,-0.050959,-0.107304,0.0524387,-1.48549,6.73507,1.26168,0.209103,0.30852,-3.02415
35102,-2.18627,0.0589694,0.0504348,-4.87111,4.69739,0.014,0.000461596,-0.00466981,-0.00139531,0.149144,-0.0272412,-0.381404,0.0329711,-0.333558,-0.099665,10.6531,-1.9458,-27.2432,0.200842,0.342624,-3.0449
35200,0.637669,-0.197901,-0.244718,-4.94019,-3.53169,0.014,0.000930784,0.00199814,-0.00277864,0.00683413,0.0958998,0.015725,0.0664846,0.142724,-0.198474,0.488152,6.84998,1.12321,0.209678,0.281649,-3.02554
35301,-2.17549,0.0858487,0.0818036,-4.76395,4.50918,0.014,0.00153847,-0.00694784,-0.000135234,0.0834614,-0.0816259,-0.344736,0.109891,-0.496275,-0.00965954,5.96153,-5.83042,-24.624,0.203227,0.315959,-3.04186
35403,0.504684,-0.275323,-0.291333,-4.83144,-3.252,0.014,1.25103e-05,0.00375843,-0.000732267,-0.0143813,0.0930235,0.0300128,0.000893592,0.268459,-0.0523048,-1.02723,6.64454,2.14377,0.20956,0.267014,-3.02416
35501,-2.18897,0.0832502,0.0999634,-4.64505,4.40022,0.014,0.000667933,-0.00741776,-0.000209931,0.11448,-0.114904,-0.346871,0.0477095,-0.52984,-0.0149951,8.17711,-8.20743,-24.7765,0.201135,0.304435,-3.04515
35601,0.514217,-0.224765,-0.259648,-4.69865,-3.44211,0.014,0.000189907,0.000473201,-0.00160064,-0.0167783,0.0953242,0.0425403,0.0135648,0.0338,-0.114331,-1.19845,6.80887,3.03859,0.209368,0.251063,-3.02508
35701,-2.24115,0.0732248,0.101199,-4.51846,4.39281,0.014,0.000452454,-0.0059625,-0.000803164,0.13259,-0.0478995,-0.401424,0.0323181,-0.425893,-0.0573689,9.47072,-3.42139,-28.6732,0.202362,0.292585,-3.04343
35801,0.462351,-0.214913,-0.25797,-4.55768,-3.45218,0.014,0.000207874,-0.000520788,0.000457028,-0.0301597,0.102201,0.0210317,0.0148481,-0.0371991,0.0326448,-2.15427,7.30004,1.50226,0.209201,0.231049,-3.02262
35902,-2.28479,0.0773757,0.105986,-4.40204,4.36408,0.014,0.00167264,-0.0104478,0.001391,0.0739903,-0.147554,-0.344584,0.119474,-0.746269,0.0993571,5.28502,-10.5395,-24.6132,0.202927,0.262303,-3.04372
36000,0.347292,-0.274952,-0.297749,-4.4656,-3.21351,0.014,0.000743428,-0.000688311,-0.00182484,-0.00915228,0.0887665,0.0243477,0.053102,-0.0491651,-0.130345,-0.653734,6.34046,1.73912,0.208613,0.190254,-3.02429
36103,-2.37303,0.0639662,0.0738111,-4.37247,4.55713,0.014,0.00148838,-0.00851273,-0.000426666,0.0943008,-0.0732244,-0.385153,0.106313,-0.608052,-0.0304761,6.73577,-5.23031,-27.5109,0.203921,0.219694,-3.0413
36202,0.397356,-0.228751,-0.264822,-4.43627,-3.41107,0.014,0.000231791,-0.000402933,0.000977169,-0.0391106,0.104812,0.0214492,0.0165565,-0.0287809,0.0697978,-2.79361,7.48657,1.53208,0.208311,0.14533,-3.02124
36302,-2.39487,0.0944975,0.0807846,-4.30279,4.51529,0.014,0.000983817,-0.00349539,-0.00126501,0.128245,-0.0632433,-0.387398,0.0702726,-0.24967,-0.0903575,9.16034,-4.51738,-27.6713,0.203532,0.187879,-3.04283
36402,0.201628,-0.31033,-0.347176,-4.35562,-2.91695,0.014,-0.000558408,-0.00320464,0.00192923,-0.0401452,0.131877,0.0114366,-0.0398863,-0.228903,0.137802,-2.86751,9.4198,0.816903,0.20757,0.113335,-3.02019
36501,-2.13544,0.145679,0.201262,-4.35573,3.74741,0.014,-0.000930865,-0.000468133,-0.000200875,0.129988,-0.0179848,-0.359327,-0.0664904,-0.0334381,-0.0143482,9.28485,-1.28463,-25.6662,0.203189,0.154753,-3.03943
36601,0.221143,-0.310616,-0.34757,-4.4229,-2.91458,0.014,0.000635667,0.00182947,0.000308214,-0.0353271,0.111102,0.0012358,0.0454048,0.130677,0.0220153,-2.52336,7.93587,0.0882717,0.207539,0.0890762,-3.02054
36700,-2.35168,0.0707389,0.0987586,-4.37111,4.40745,0.014,0.000913871,-0.00307895,-0.000854764,0.104201,-0.0736556,-0.358331,0.0652765,-0.219925,-0.0610546,7.44296,-5.26111,-25.595,0.202693,0.14025,-3.04145
36804,0.159582,-0.35807,-0.374754,-4.41374,-2.75148,0.014,0.000790831,0.000976472,0.000834853,-0.0537362,0.106558,0.0136991,0.0564879,0.069748,0.0596323,-3.8383,7.61127,0.978505,0.208138,0.0821552,-3.01998
36900,-1.83093,0.135633,0.159229,-4.41223,2.84108,0.014,0.000764357,-0.00277728,-0.000280243,0.0901144,-0.102102,-0.362368,0.0545969,-0.198377,-0.0200174,6.43674,-7.29303,-25.8834,0.202887,0.125345,-3.04163
37000,0.258451,-0.323174,-0.339054,-4.50384,-2.96568,0.014,0.00111819,-8.33483e-05,0.000334098,-0.0453964,0.0929428,0.0268611,0.0798707,-0.00595345,0.0238642,-3.2426,6.63877,1.91865,0.208036,0.0686639,-3.02233
37100,-2.32337,0.0990226,0.106487,-4.43652,4.36108,0.014,-0.00028419,-0.000592228,-0.00208655,0.121551,-0.0252816,-0.371894,-0.0202993,-0.042302,-0.149039,8.68219,-1.80583,-26.5638,0.203123,0.125465,-3.04091
37201,0.157052,-0.332348,-0.384369,-4.48266,-2.69379,0.014,-0.00082614,-0.00201905,0.0031888,-0.051262,0.130864,0.00890317,-0.05901,-0.144218,0.227771,-3.66157,9.34743,0.635941,0.207356,0.0618904,-3.01881
37301,-1.63086,0.135397,0.156609,-4.52122,2.31864,0.014,0.00166105,-0.00520901,0.00178771,0.0605908,-0.120392,-0.353574,0.118647,-0.372072,0.127694,4.32791,-8.59944,-25.2553,0.203666,0.0973408,-3.04045
37401,0.271114,-0.359228,-0.35044,-4.62226,-2.89736,0.014,3.27594e-05,0.00261975,-0.00114348,-0.0361956,0.0759768,0.040793,0.00233996,0.187125,-0.0816773,-2.5854,5.42692,2.91379,0.206925,0.0421813,-3.02334
37501,-2.28127,0.110722,0.113938,-4.54129,4.31637,0.014,0.000496209,-0.00439531,-0.00226137,0.0880672,-0.0855943,-0.402148,0.0354435,-0.313951,-0.161526,6.29051,-6.11388,-28.7249,0.202921,0.102471,-3.04167
37600,0.250948,-0.308133,-0.350095,-4.57832,-2.89943,0.014,1.84674e-05,-6.15098e-05,0.000717477,-0.0481712,0.155089,0.00871523,0.0013191,-0.00439356,0.0512483,-3.4408,11.0778,0.622517,0.207368,0.040487,-3.0191
37700,-2.26532,0.120511,0.123546,-4.5453,4.25872,0.014,0.000617133,-0.00017798,-0.000564577,0.120049,-0.0394791,-0.38742,0.0440809,-0.0127128,-0.0403269,8.57495,-2.81993,-27.6729,0.203594,0.0973534,-3.04029
37801,0.183552,-0.353863,-0.384632,-4.59007,-2.69221,0.014,-0.00056887,-0.00141593,0.00299596,-0.058623,0.113512,0.0216198,-0.0406336,-0.101138,0.213997,-4.18736,8.10803,1.54427,0.206491,0.0308933,-3.01937
37902,-1.85991,0.134456,0.183243,-4.60017,3.06481,0.014,-0.000213587,-6.73523e-05,-0.000963753,0.11909,-0.0505939,-0.334723,-0.0152562,-0.00481088,-0.0688395,8.5064,-3.61385,-23.9088,0.202732,0.0772614,-3.04107
38001,0.295718,-0.321059,-0.341798,-4.67697,-2.94921,0.014,-0.000708631,0.00240729,-0.000432727,-0.0460359,0.104145,0.0469927,-0.0506165,0.171949,-0.030909,-3.28828,7.43891,3.35662,0.205884,0.0137369,-3.02092
38102,-2.31192,0.100695,0.102788,-4.55625,4.38327,0.014,0.00165208,-0.00275011,-0.00237932,0.110473,-0.065498,-0.433396,0.118006,-0.196436,-0.169951,7.8909,-4.67843,-30.9568,0.20284,0.0807739,-3.04239
38201,0.161685,-0.384799,-0.390958,-4.58759,-2.65425,0.014,-0.00129398,-0.000691303,0.00125144,-0.0598308,0.175187,0.00897608,-0.0924274,-0.0493788,0.0893882,-4.27363,12.5134,0.641148,0.205457,0.0119836,-3.01645
38301,-1.70992,0.114315,0.161375,-4.61772,2.59801,0.014,0.00166997,-0.00166381,0.000295109,0.122036,-0.0649005,-0.384024,0.119284,-0.118843,0.0210792,8.71687,-4.63575,-27.4303,0.204021,0.0564852,-3.04102
38400,0.164301,-0.371568,-0.412931,-4.7227,-2.52241,0.014,-0.00025406,-0.000195191,0.000562891,-0.0503191,0.132818,0.0229521,-0.0181472,-0.0139422,0.0402065,-3.59422,9.48703,1.63944,0.206351,-0.0040756,-3.02119
38501,-1.60181,0.133323,0.164113,-4.76467,2.42121,0.014,4.59376e-05,-0.00109896,-0.000468692,0.131316,-0.00972183,-0.359982,0.00328126,-0.0784974,-0.033478,9.37972,-0.694416,-25.713,0.203478,0.0454095,-3.03972
38601,0.268405,-0.352771,-0.377956,-4.82776,-2.73227,0.014,-0.00173649,-0.000335037,0.00217526,-0.0611773,0.123123,0.0210442,-0.124035,-0.0239312,0.155376,-4.36981,8.7945,1.50316,0.205354,-0.0125867,-3.01986
38702,-2.1727,0.127253,0.141102,-4.76417,4.15339,0.014,0.00171899,-0.00516259,-0.00134623,0.0982039,-0.0747855,-0.451809,-0.0986729,0.151954,-0.135927,8.85491,-1.86663,-29.631,0.203217,0.0530493,-3.04232
38801,0.195919,-0.35803,-0.405681,-4.78934,-2.56591,0.014,0.00052399,0.00155153,-0.000707583,-0.047398,0.189025,0.0347526,0.0374279,0.110824,-0.0505416,-3.38557,13.5018,2.48233,0.205779,-0.0107418,-3.01732
38901,-1.8936,0.15305,0.19565,-4.76949,3.29512,0.014,0.00185464,-0.00304361,-0.000105874,0.115306,-0.0637848,-0.443604,0.132474,-0.217401,-0.00756243,8.23616,-4.55606,-31.686,0.203045,0.0506818,-3.04185
39001,0.230897,-0.361349,-0.394184,-4.83265,-2.6349,0.014,-0.000492559,0.000842336,0.000357115,-0.0483471,0.167797,0.0431981,-0.0351828,0.0601669,0.0255082,-3.45337,11.9855,3.08558,0.205102,-0.0174983,-3.01818
39101,-2.10478,0.171454,0.173228,-4.79832,3.96063,0.014,0.000799436,-0.00100519,-0.000579017,0.139715,-0.0205507,-0.422251,0.0571026,-0.0717995,-0.0413584,9.97968,-1.46791,-30.1608,0.203334,0.0474022,-3.04155
39201,0.221837,-0.363846,-0.394577,-4.82061,-2.63254,0.014,-0.00175008,-0.000919117,0.00241099,-0.0648917,0.163861,0.0312764,-0.125005,-0.0656512,0.172214,-4.63512,11.7044,2.23403,0.205537,-0.0195101,-3.01782
39301,-1.93908,0.168651,0.221578,-4.82407,3.47152,0.014,0.000162176,0.000262288,-0.000672229,0.130986,-0.0444946,-0.41096,0.011584,0.0187349,-0.0480163,9.35611,-3.17818,-29.3543,0.202842,0.0389739,-3.04192
39401,0.192404,-0.363146,-0.421271,-4.89267,-2.47237,0.014,0.0013526,0.00328712,-0.00240134,-0.037924,0.163248,0.0572135,0.0966142,0.234794,-0.171524,-2.70886,11.6606,4.08668,0.206462,-0.0261196,-3.01946
39501,-1.8665,0.147458,0.19216,-4.87582,3.29821,0.014,0.00162151,-0.00350793,2.9489e-05,0.122896,-0.0240302,-0.430652,0.115822,-0.250567,0.00210636,8.77826,-1.71645,-30.7608,0.203182,0.0393001,-3.04024
39601,0.154653,-0.423642,-0.435496,-4.87566,-2.38703,0.014,-0.000215433,0.000986507,0.000824417,-0.045943,0.183171,0.0256465,-0.0153881,0.0704648,0.0588869,-3.28164,13.0836,1.83189,0.205328,-0.0282709,-3.01791
39700,-1.54217,0.136983,0.154402,-4.9134,2.33987,0.014,0.00111226,-0.00310368,0.00033559,0.0936374,-0.0937413,-0.401244,0.0794472,-0.221691,0.0239707,6.68839,-6.69581,-28.6603,0.202901,0.018614,-3.04181
39801,0.283563,-0.345387,-0.394279,-5.01288,-2.63433,0.014,-0.00049221,0.00200101,-0.000359445,-0.0465234,0.142369,0.0799736,-0.0351578,0.142929,-0.0256747,-3.3231,10.1692,5.7124,0.206855,-0.0350517,-3.02084
39901,-2.22402,0.0910736,0.0944947,-4.93221,4.43303,0.014,0.000800281,-0.00153897,-0.00210428,0.142649,-0.027152,-0.43182,0.0571629,-0.109926,-0.150306,10.1892,-1.93943,-30.8443,0.202484,0.0360373,-3.04383
40001,0.294905,-0.350553,-0.375864,-4.95458,-2.74481,0.014,-0.00306947,-0.000190813,0.0016975,-0.0577189,0.205167,0.066288,-0.219247,-0.0136295,0.12125,-4.12278,14.6547,4.73485,0.203528,-0.0275873,-3.01654
40101,-2.28474,0.0643805,0.0787829,-4.86082,4.5273,0.014,0.00188759,-0.00798138,0.000692798,0.0774992,-0.137423,-0.472967,0.134828,-0.570098,0.0494855,5.53565,-9.81593,-33.7833,0.202798,0.0406483,-3.04455
40200,0.258788,-0.34193,-0.384883,-4.91514,-2.6907,0.014,0.00219794,0.00340311,-0.00374803,-0.0366264,0.187134,0.0943098,0.156996,0.243079,-0.267716,-2.61617,13.3667,6.73641,0.206466,-0.0234099,-3.01896
40300,-2.07977,0.145028,0.177313,-4.88414,3.91786,0.014,0.00188873,-0.00472687,-0.000226406,0.107674,-0.0474779,-0.478832,0.134909,-0.337633,-0.0161719,7.69098,-3.39128,-34.2023,0.203535,0.0475244,-3.04184
40403,0.255359,-0.33801,-0.385389,-4.91778,-2.68766,0.014,-0.00144865,0.00186332,-0.000653315,-0.03624,0.195073,0.0590688,-0.103475,0.133094,-0.0466654,-2.58857,13.9338,4.2192,0.206858,-0.0160085,-3.0193
40501,-2.0787,0.152965,0.181385,-4.89027,3.91169,0.014,0.00114822,-0.00212013,-0.000474653,0.137793,-0.0321006,-0.445072,0.0820154,-0.151438,-0.0339038,9.84237,-2.2929,-31.7908,0.203334,0.0485446,-3.04247
40601,0.285208,-0.319198,-0.370053,-4.92567,-2.77968,0.014,-0.00340947,0.00048328,0.0011589,-0.0496397,0.176986,0.0723567,-0.243534,0.03452,0.0827787,-3.54569,12.6419,5.16834,0.204643,-0.0145847,-3.01792
40702,-2.27394,0.0736807,0.0901647,-4.85525,4.45901,0.014,-0.000211988,-0.000253361,-0.00108852,0.155515,-0.0342641,-0.441886,-0.015142,-0.0180972,-0.0777512,11.1082,-2.44744,-31.5633,0.203086,0.0538371,-3.0441
40801,0.1564,-0.403818,-0.424907,-4.87838,-2.45056,0.014,0.00118527,0.00198021,-0.00340698,-0.0358473,0.187502,0.0460714,0.0846621,0.141444,-0.243355,-2.56052,13.393,3.29081,0.206944,-0.0128927,-3.01873
40901,-1.54745,0.142701,0.156148,-4.93237,2.31639,0.014,0.00191147,-0.00575424,0.00148915,0.0864622,-0.0608042,-0.431422,0.136533,-0.411017,0.106368,6.17586,-4.34315,-30.8158,0.204154,0.036431,-3.04028
41001,0.251511,-0.38249,-0.40408,-5.03352,-2.57552,0.014,-0.00114669,0.00328679,-0.00111639,-0.0315492,0.143018,0.0782762,-0.0819063,0.23477,-0.0797423,-2.25351,10.2156,5.59115,0.205474,-0.0245549,-3.02091
41101,-2.18878,0.067667,0.113175,-4.98238,4.32095,0.014,0.00116768,-0.00347355,-0.00178987,0.115764,-0.0500924,-0.444975,0.0834059,-0.24811,-0.127848,8.26886,-3.57803,-31.7839,0.202545,0.0457896,-3.04274
41201,0.257517,-0.338262,-0.394595,-5.00752,-2.63243,0.014,-0.000110669,0.000394032,0.00022992,-0.0533787,0.192838,0.0459333,-0.00790491,0.0281452,0.0164228,-3.81277,13.7741,3.28095,0.206628,-0.0183782,-3.01864
41301,-2.11205,0.129662,0.156567,-4.96738,4.0606,0.014,0.00101788,-0.000105934,-0.000795436,0.136761,-0.0286631,-0.448855,0.0727058,-0.00756672,-0.0568169,9.76865,-2.04736,-32.0611,0.203532,0.0503559,-3.04239
41401,0.205014,-0.379445,-0.418195,-5.00015,-2.49083,0.014,-0.00128719,-0.000777914,0.00218783,-0.0568191,0.187351,0.0354249,-0.0919422,-0.0555653,0.156274,-4.05851,13.3822,2.53035,0.205929,-0.0163993,-3.01777
41501,-1.76391,0.16657,0.204862,-5.00889,3.03485,0.014,0.00206466,-0.0057773,0.000668538,0.072324,-0.0887646,-0.443603,0.147476,-0.412664,0.0477527,5.166,-6.34033,-31.6859,0.204022,0.0417617,-3.04182
41601,0.316516,-0.321914,-0.371984,-5.06413,-2.7681,0.014,-0.000148726,0.0052675,-0.00146701,-0.0298868,0.181505,0.11166,-0.0106233,0.37625,-0.104787,-2.13477,12.9646,7.97568,0.20565,-0.0155545,-3.0195
41702,-2.22406,0.0740904,0.106721,-4.94565,4.35968,0.014,0.00138447,-0.00541553,-0.00105548,0.0986087,-0.119175,-0.453134,0.0988909,-0.386823,-0.0753915,7.04348,-8.51247,-32.3667,0.202388,0.0557345,-3.04563
41802,0.23436,-0.373227,-0.394357,-4.9697,-2.63386,0.014,-0.000460163,0.000285108,-0.00201123,-0.0394737,0.198805,0.0610543,-0.0328688,0.0203648,-0.14366,-2.81955,14.2003,4.36102,0.205457,-0.0143933,-3.01813
41902,-1.93435,0.206716,0.234207,-4.97033,3.49267,0.014,0.0016277,-0.00281921,4.20128e-05,0.124918,-0.0166285,-0.448658,0.116265,-0.201372,0.00300091,8.92269,-1.18775,-32.047,0.203258,0.0502263,-3.04068
42002,0.233391,-0.353805,-0.404454,-5.02905,-2.57328,0.014,-0.000690724,0.000720467,0.00102681,-0.0511989,0.162133,0.0404671,-0.0493374,0.051462,0.0733434,-3.65706,11.5809,2.89051,0.2062,-0.0150796,-3.0196
42101,-2.1632,0.108646,0.13215,-4.99331,4.2071,0.014,0.000252626,-0.000492412,-0.000897967,0.142288,-0.0167991,-0.407207,0.0180447,-0.0351723,-0.0641405,10.1634,-1.19994,-29.0862,0.203283,0.048505,-3.04221
42202,0.221588,-0.370045,-0.409364,-5.03214,-2.54382,0.014,0.00060789,0.00337337,-0.00258782,-0.0310367,0.170587,0.0611651,0.0434207,0.240955,-0.184844,-2.21691,12.1848,4.36893,0.206923,-0.0145555,-3.0199
42301,-2.05633,0.182794,0.187004,-4.99982,3.87797,0.014,0.00201045,-0.00601444,-0.000253242,0.0855133,-0.087592,-0.447967,0.143603,-0.429602,-0.0180887,6.10808,-6.25656,-31.9976,0.203857,0.0433856,-3.04283
42401,0.27,-0.366564,-0.385371,-5.04344,-2.68778,0.014,-0.000644688,0.00274487,-0.00158116,-0.0358965,0.176209,0.0824839,-0.0460491,0.196062,-0.11294,-2.56403,12.5863,5.8917,0.205676,-0.0189018,-3.01919
42503,-2.22469,0.0590728,0.106656,-4.97884,4.36006,0.014,0.00114012,-0.00434331,-0.00109774,0.116171,-0.0669171,-0.462467,0.0814371,-0.310236,-0.0784101,8.29789,-4.77979,-33.0333,0.203069,0.0506403,-3.0434
42602,0.228104,-0.381536,-0.397866,-5.00505,-2.61281,0.014,4.949e-05,0.000439704,-0.000496024,-0.048105,0.197136,0.0475418,0.003535,0.0314074,-0.0354303,-3.43607,14.0811,3.39584,0.207427,-0.0163923,-3.01932
42700,-2.06166,0.164061,0.189775,-4.98704,3.86135,0.014,0.00135389,-0.00151162,-0.000161854,0.143222,-0.0060988,-0.441918,0.0967062,-0.107973,-0.011561,10.2301,-0.435629,-31.5656,0.204457,0.0446047,-3.04153
42801,0.187272,-0.371752,-0.420086,-5.02113,-2.47949,0.014,-0.00146913,-0.000746835,0.00179546,-0.0598129,0.167333,0.0288396,-0.104938,-0.0533453,0.128247,-4.27235,11.9524,2.05997,0.20676,-0.0214812,-3.01911
42901,-1.78424,0.148418,0.187122,-5.03979,3.06495,0.014,0.00155187,-0.00636293,0.000515974,0.064595,-0.0889719,-0.4327,0.110848,-0.454495,0.0368553,4.61393,-6.35513,-30.9072,0.204477,0.0329639,-3.04139
43001,0.285109,-0.351436,-0.381023,-5.0858,-2.71386,0.014,-0.00064243,0.00403014,-0.0016939,-0.0320775,0.1652,0.0621358,-0.0458878,0.287867,-0.120993,-2.29125,11.8,4.43827,0.206252,-0.0224195,-3.02017
43101,-2.13297,0.142747,0.150621,-5.01805,4.09628,0.014,0.0013606,-0.00551077,-0.00107005,0.0987962,-0.0937385,-0.444535,0.0971855,-0.393626,-0.076432,7.05687,-6.69561,-31.7525,0.203165,0.0425796,-3.04418
43203,0.258574,-0.366341,-0.385477,-5.04532,-2.68714,0.014,-0.000385755,0.00135973,-0.00155937,-0.0425383,0.188128,0.0660452,-0.0275539,0.0971233,-0.111384,-3.03845,13.4377,4.71751,0.205803,-0.0221981,-3.01859
43302,-2.23491,0.0842495,0.105724,-4.98931,4.36566,0.014,0.00203806,-0.00280531,-0.000890564,0.134582,-0.0243494,-0.458452,0.145575,-0.200379,-0.0636117,9.61297,-1.73924,-32.7466,0.204428,0.0432376,-3.04293
43405,0.164898,-0.376278,-0.427584,-5.0249,-2.4345,0.014,-0.000609012,-0.00142554,0.000970194,-0.0607226,0.173931,0.0195124,-0.0435009,-0.101824,0.0692996,-4.33733,12.4236,1.39374,0.20747,-0.0249106,-3.01983
43501,-1.66574,0.150674,0.164749,-5.05573,2.69324,0.014,0.00047763,-0.000721381,-0.000245877,0.116814,-0.0297822,-0.389663,0.0341164,-0.0515272,-0.0175626,8.34386,-2.1273,-27.8331,0.204659,0.0256331,-3.04064
43600,0.238007,-0.392646,-0.409615,-5.13467,-2.54231,0.014,-0.000511552,-0.00173266,0.00250931,-0.058907,0.132024,0.0291435,-0.0365394,-0.123762,0.179237,-4.20764,9.43028,2.08168,0.206819,-0.0408967,-3.02055
43702,-2.04681,0.147931,0.179351,-5.12376,3.92389,0.014,0.00111237,-0.00448323,-0.00111672,0.0664956,-0.103924,-0.421068,0.0794551,-0.32023,-0.0797657,4.74969,-7.42313,-30.0763,0.204146,0.019129,-3.04247
43803,0.273436,-0.361219,-0.395703,-5.16399,-2.62578,0.014,0.000139107,0.00307753,-0.00133453,-0.0459032,0.165253,0.0504126,0.00993621,0.219823,-0.0953234,-3.2788,11.8038,3.6009,0.207237,-0.032692,-3.01963
43900,-2.18691,0.0772181,0.113581,-5.10164,4.31851,0.014,0.00123388,-0.00355372,-0.00113536,0.094358,-0.0932184,-0.448691,0.0881343,-0.253837,-0.0810972,6.73985,-6.65846,-32.0493,0.20355,0.0361849,-3.0434
44003,0.222528,-0.36042,-0.415119,-5.13732,-2.50928,0.014,0.001211,0.000905688,-0.000886919,-0.0474813,0.182698,0.0392908,0.0864997,0.064692,-0.0633514,-3.39152,13.0499,2.80648,0.208381,-0.0239387,-3.02098
44103,-1.86936,0.17958,0.222398,-5.13548,3.37891,0.014,0.00201033,-0.00224057,-0.000766768,0.112857,-0.0397306,-0.424103,0.143595,-0.160041,-0.0547691,8.06122,-2.8379,-30.2931,0.204351,0.0328426,-3.04225
44202,0.362665,-0.336893,-0.355216,-5.20462,-2.8687,0.014,-0.00112324,0.00209493,0.00030313,-0.043829,0.168457,0.0694682,-0.0802313,0.149638,0.0216522,-3.13064,12.0326,4.96202,0.207177,-0.0185418,-3.02036
44302,-2.21438,0.101701,0.104017,-5.0913,4.3759,0.014,0.000685087,-0.00169068,-0.00159055,0.145994,-0.0344407,-0.426045,0.0489348,-0.120763,-0.113611,10.4282,-2.46005,-30.4318,0.203015,0.0502536,-3.04427
44401,0.313615,-0.345751,-0.362923,-5.12073,-2.82246,0.014,0.00276958,0.00437475,-0.00449234,-0.0406306,0.153317,0.07806,0.197827,0.312482,-0.320881,-2.90219,10.9512,5.57571,0.209033,-0.00921855,-3.02139
44501,-2.24124,0.113425,0.100427,-5.04514,4.39744,0.014,0.00179735,-0.00653786,-0.000565101,0.0803421,-0.0879511,-0.468434,0.128382,-0.46699,-0.0403643,5.73872,-6.28222,-33.4596,0.204026,0.0571587,-3.04301
44600,0.323176,-0.311248,-0.34514,-5.06048,-2.92916,0.014,0.000224473,0.00378942,-0.00241492,-0.0295725,0.201255,0.0749825,0.0160338,0.270673,-0.172494,-2.11232,14.3753,5.35589,0.206804,-0.000804905,-3.01894
44701,-2.27057,0.0961303,0.0997314,-4.97695,4.40161,0.014,0.00131515,-0.00589469,-0.000320283,0.0980446,-0.104273,-0.452714,0.0939395,-0.421049,-0.0228774,7.00318,-7.44805,-32.3367,0.203805,0.0591577,-3.04447
44800,0.24343,-0.318834,-0.37863,-5.03175,-2.72822,0.014,0.000990586,0.00117229,-0.00260832,-0.0347886,0.177776,0.0517915,0.0707562,0.0837347,-0.186309,-2.4849,12.6983,3.69939,0.209451,0.00388409,-3.02245
44901,-2.12274,0.137083,0.17037,-5.0098,3.97778,0.014,0.00159734,-0.00220978,-0.000448109,0.137141,0.0164011,-0.441426,0.114096,-0.157841,-0.0320078,9.79575,1.17151,-31.5304,0.205144,0.0670701,-3.04066
45001,0.212852,-0.356949,-0.392844,-5.03308,-2.64294,0.014,0.00196165,0.00372653,-0.00368917,-0.0311911,0.143462,0.00248936,0.140118,0.266181,-0.263512,-2.22793,10.2473,0.177811,0.209202,0.0118711,-3.02198
45100,-2.01451,0.17237,0.212698,-5.0581,3.69183,0.014,0.00153177,-0.00630199,0.000763342,0.0523262,-0.0882827,-0.42235,0.109412,-0.450142,0.0545244,3.73759,-6.30591,-30.1679,0.205415,0.0595779,-3.04006
45201,0.27293,-0.347434,-0.372029,-5.09318,-2.76783,0.014,-0.000182929,0.00412926,-0.00149837,-0.0284876,0.143674,0.0317912,-0.0130663,0.294947,-0.107026,-2.03483,10.2624,2.2708,0.207897,0.00791967,-3.02137
45301,-2.19323,0.109476,0.133988,-5.02934,4.19607,0.014,0.00118438,-0.0056003,-0.000904437,0.0824639,-0.11,-0.42369,0.0845984,-0.400022,-0.0646026,5.89028,-7.85718,-30.2636,0.203811,0.0666554,-3.0435
45401,0.324609,-0.282096,-0.337148,-5.05595,-2.97711,0.014,0.00105804,0.00187072,-0.00199075,-0.0341171,0.17331,0.0535505,0.0755743,0.133623,-0.142196,-2.43694,12.3793,3.82503,0.209526,0.0110348,-3.02229
45502,-2.28287,0.0840866,0.0959246,-4.99773,4.42445,0.014,0.00129948,-0.00487178,-0.00115695,0.111252,-0.0632274,-0.448186,0.0928198,-0.347984,-0.0826394,7.94655,-4.51625,-32.0133,0.204286,0.0671199,-3.0436
45603,0.289172,-0.323687,-0.351175,-5.04358,-2.89295,0.014,0.00116611,0.000907955,-0.00121585,-0.0393228,0.187225,0.0250866,0.0832937,0.0648539,-0.0868465,-2.80877,13.3732,1.7919,0.209127,0.0126138,-3.02141
45701,-2.25715,0.119785,0.109653,-5.0018,4.34208,0.014,0.000885418,-0.00993472,0.000444171,0.0486942,-0.11495,-0.427022,0.0632441,-0.709623,0.0317265,3.47816,-8.21072,-30.5016,0.20512,0.0670863,-3.04179
45802,0.208965,-0.333937,-0.387149,-5.02651,-2.67711,0.014,0.00186872,0.00372628,-0.00353623,-0.0344469,0.150049,0.0147804,0.13348,0.266163,-0.252588,-2.46049,10.7178,1.05574,0.209565,0.0145676,-3.0214
45900,-2.06922,0.164354,0.206002,-5.00848,3.76399,0.014,0.0014172,-0.00711683,0.00107821,0.0494117,-0.111951,-0.412268,0.101228,-0.508345,0.077015,3.52941,-7.99649,-29.4477,0.20486,0.0604322,-3.04132
46001,0.346382,-0.286695,-0.322803,-5.07035,-3.05639,0.014,0.00143082,0.00544329,-0.00290745,-0.0263466,0.141822,0.0657578,0.102202,0.388807,-0.207675,-1.8819,10.1301,4.69698,0.209351,0.0132947,-3.02217
46104,-2.29442,0.0806428,0.100396,-4.96754,4.39762,0.014,0.00115484,-0.00544454,-0.000999622,0.0775954,-0.107802,-0.443967,0.0824889,-0.388896,-0.0714015,5.54253,-7.70013,-31.7119,0.204211,0.0750345,-3.04388
46201,0.240245,-0.338984,-0.361389,-4.99159,-2.83167,0.014,0.00136982,0.00174312,-0.00198471,-0.0363843,0.179584,0.0215422,0.0978445,0.124509,-0.141765,-2.59888,12.8274,1.53873,0.21007,0.0246361,-3.02197
46301,-2.16303,0.13462,0.169844,-4.96241,3.98094,0.014,0.00239076,-0.00339342,0.000307594,0.109709,-0.0287891,-0.439048,0.170769,-0.242387,0.021971,7.83633,-2.05636,-31.3606,0.205176,0.0761732,-3.04054
46401,0.202356,-0.349183,-0.378162,-4.98705,-2.73103,0.014,-0.000151776,0.000259434,0.000494181,-0.0381377,0.162863,0.0150931,-0.0108412,0.018531,0.0352986,-2.72412,11.6331,1.07808,0.210316,0.0182677,-3.02332
46501,-1.89899,0.156689,0.202196,-5.01932,3.22761,0.014,0.00175812,-0.00707402,0.000420337,0.0433257,-0.0985854,-0.414947,0.12558,-0.505287,0.030024,3.09469,-7.04181,-29.6391,0.205389,0.0614858,-3.04058
46601,0.306466,-0.296629,-0.338969,-5.06868,-2.96619,0.014,0.000187777,0.00474764,-0.00216064,-0.0270992,0.145172,0.0417904,0.0134126,0.339117,-0.154332,-1.93566,10.3695,2.98503,0.208475,0.0130673,-3.02174
46701,-2.33867,0.0669855,0.0782844,-4.99209,4.53029,0.014,0.00110538,-0.00659201,-0.000627436,0.0710058,-0.125024,-0.426837,0.0789554,-0.470858,-0.0448168,5.07184,-8.93026,-30.4884,0.204449,0.0650495,-3.04421
46801,0.234602,-0.324037,-0.368057,-5.03756,-2.79166,0.014,0.00102765,0.00132377,-0.0024631,-0.0385166,0.158834,0.0433981,0.0734038,0.0945547,-0.175935,-2.75119,11.3453,3.09986,0.210055,0.0128085,-3.02309
46902,-2.19732,0.145054,0.149671,-5.00334,4.10198,0.014,0.00160274,-0.00218076,-0.000664526,0.10711,-0.0121466,-0.405511,0.114482,-0.155769,-0.0474661,7.65074,-0.867613,-28.9651,0.204453,0.0725384,-3.04046
47002,0.155421,-0.352574,-0.405408,-5.03116,-2.56755,0.014,-0.000333771,-0.000943371,0.00114952,-0.0539765,0.124918,-0.0180724,-0.0238408,-0.0673836,0.0821089,-3.85546,8.92274,-1.29089,0.209254,0.0178492,-3.02397
47101,-1.79451,0.121646,0.155345,-5.02478,2.88628,0.014,0.00115675,0.0025724,-0.00184826,0.0760101,-0.0369635,-0.301663,0.0826247,0.183743,-0.132019,5.4293,-2.64025,-21.5474,0.205927,0.0697275,-3.03992
47201,0.222479,-0.377616,-0.384495,-5.1095,-2.69303,0.014,0.000973748,0.00384655,0.000238828,-0.0409556,0.0894188,0.0181576,0.0695534,0.274754,0.0170592,-2.9254,6.38706,1.29697,0.210063,0.0311031,-3.02328
47300,-2.12367,0.157021,0.178096,-5.06781,3.93142,0.014,0.000883376,-0.00651117,-0.000265454,0.0566012,-0.1687,-0.3559,0.0630983,-0.465083,-0.018961,4.04294,-12.05,-25.4214,0.203987,0.0747318,-3.04479
47401,0.317362,-0.315327,-0.337381,-5.12344,-2.97571,0.014,0.00111338,0.00323281,-0.00369517,-0.0363367,0.0981731,0.0482631,0.0795274,0.230915,-0.263941,-2.59548,7.01237,3.44737,0.210184,0.0306957,-3.02367
47500,-2.23584,0.134647,0.131821,-5.01685,4.20907,0.014,0.000924326,-0.00652459,-0.00132958,0.0664301,-0.0988351,-0.427314,0.0660233,-0.466042,-0.0949703,4.74501,-7.05965,-30.5224,0.204819,0.0845967,-3.04341
47601,0.369422,-0.249666,-0.297116,-5.05895,-3.2173,0.014,0.00148526,0.00409349,-0.0030648,-0.037,0.144241,0.0298815,0.10609,0.292392,-0.218914,-2.64286,10.303,2.13439,0.210835,0.0504415,-3.02362
47701,-2.40832,0.0579971,0.0611206,-4.92953,4.63328,0.014,0.00158492,-0.00379011,-0.000360765,0.0879851,-0.0710031,-0.410866,0.113208,-0.270722,-0.0257689,6.28465,-5.07165,-29.3476,0.205141,0.106829,-3.04187
47800,0.245252,-0.311093,-0.341708,-4.96956,-2.94975,0.014,0.00143949,0.00475881,-0.00501411,-0.0208749,0.0489707,0.01654,0.102821,0.339915,-0.358151,-1.49107,3.49791,1.18143,0.210606,0.0654614,-3.02718
47901,-2.32753,0.0656458,0.101826,-4.93937,4.38904,0.014,0.00127611,-0.00661553,-0.0002872,0.0526338,-0.0785614,-0.348347,0.0911507,-0.472538,-0.0205143,3.75956,-5.61153,-24.8819,0.205969,0.111703,-3.0395
48001,0.281379,-0.289426,-0.3168,-4.94333,-3.0992,0.014,0.00148233,0.00375835,-0.00175993,-0.0168339,0.105142,0.0100091,0.10588,0.268454,-0.125709,-1.20242,7.51012,0.714936,0.209663,0.0708263,-3.02442
48101,-2.4394,0.020946,0.0626434,-4.84829,4.62414,0.014,0.00173765,-0.00182599,-0.00128489,0.085397,-0.0489607,-0.338004,0.124118,-0.130428,-0.091778,6.09978,-3.4972,-24.1431,0.20597,0.125552,-3.04027
48201,0.09587,-0.354137,-0.389953,-4.83983,-2.66028,0.014,-0.000201989,-0.001192,0.00060443,-0.0264267,0.104609,-0.0166918,-0.0144278,-0.0851426,0.0431736,-1.88762,7.47209,-1.19227,0.208853,0.077406,-3.02522
48301,-1.3676,0.0835465,0.095783,-4.91751,1.40694,0.014,0.000723806,-0.00351823,-0.000289965,0.0778514,-0.0537814,-0.293132,0.0517004,-0.251302,-0.0207118,5.56081,-3.84153,-20.938,0.205611,0.100438,-3.03959
48402,0.236706,-0.335543,-0.354218,-5.0386,-2.87469,0.014,5.39584e-05,0.00465327,-0.00233945,-0.0165126,0.041488,0.0260964,0.00385417,0.332376,-0.167103,-1.17947,2.96343,1.86403,0.209341,0.0634907,-3.02761
48501,-2.3344,0.0665699,0.0961657,-4.97713,4.42301,0.014,0.000476409,-0.00571193,-0.000938759,0.045807,-0.143074,-0.319303,0.0340292,-0.407995,-0.0670542,3.27192,-10.2196,-22.8073,0.205694,0.108108,-3.04186
48602,0.182566,-0.35394,-0.371149,-4.99132,-2.7731,0.014,0.000260288,0.00130709,-0.00199735,-0.0246542,0.100398,-0.00210687,0.018592,0.0933637,-0.142668,-1.76101,7.17127,-0.15049,0.209423,0.0633351,-3.02457
48701,-1.9973,0.130498,0.182485,-4.98192,3.38688,0.014,0.00124048,-0.00354924,-0.00101273,0.0568344,-0.0926527,-0.355277,0.0886061,-0.253517,-0.0723376,4.0596,-6.61805,-25.3769,0.206187,0.107799,-3.03992
48801,0.133626,-0.375757,-0.400234,-5.02186,-2.5986,0.014,0.000224335,0.00141662,-0.000512787,-0.0277287,0.104106,0.00207916,0.016024,0.101187,-0.0366276,-1.98062,7.43612,0.148511,0.209256,0.0619785,-3.02407
48901,-1.70414,0.12083,0.133548,-5.04484,2.54941,0.014,0.00115818,-0.00584686,0.000226419,0.0549891,-0.120245,-0.324269,0.0827271,-0.417633,0.0161728,3.92779,-8.58889,-23.1621,0.205591,0.0887702,-3.04144
49000,0.2768,-0.317042,-0.3483,-5.14078,-2.9102,0.014,0.00032368,0.0034734,-0.00286224,-0.0304423,0.0630382,0.0319185,0.02312,0.2481,-0.204445,-2.17445,4.50273,2.27989,0.210062,0.0576125,-3.02784
49101,-2.36321,0.0696293,0.0733953,-5.04771,4.55963,0.014,0.000769844,-0.0061724,-0.00138462,0.0711211,-0.0985841,-0.36241,0.0549889,-0.440885,-0.0989016,5.08008,-7.04172,-25.8864,0.205076,0.100642,-3.04281
49201,0.359192,-0.294566,-0.294685,-5.08688,-3.23189,0.014,0.000654477,0.00590213,-0.00533414,-0.0221866,0.032597,0.0308305,0.0467484,0.421581,-0.38101,-1.58475,2.32836,2.20218,0.210261,0.0677017,-3.02828
49301,-2.39444,0.0546377,0.0719091,-4.976,4.56855,0.014,0.000174672,-0.00861749,0.000907112,0.042602,-0.136587,-0.311634,0.0124766,-0.615535,0.0647937,3.043,-9.75623,-22.2596,0.205614,0.108825,-3.04093
49403,0.246675,-0.295116,-0.337043,-5.01638,-2.97774,0.014,0.000909014,0.00290524,-0.00306249,-0.0221452,0.0524577,0.0172962,0.0649296,0.207517,-0.218749,-1.5818,3.74698,1.23545,0.210221,0.0661247,-3.02685
49502,-2.3244,0.0849777,0.109939,-4.97202,4.34037,0.014,0.000900688,-0.0044119,-0.00129583,0.0460984,-0.105835,-0.34862,0.0643348,-0.315135,-0.092559,3.29274,-7.55963,-24.9014,0.205653,0.109604,-3.04086
49600,0.21073,-0.342307,-0.351396,-5.00391,-2.89163,0.014,0.00127125,0.00141674,-0.000411628,-0.0275917,0.108398,0.00626133,0.0908038,0.101195,-0.029402,-1.97084,7.74273,0.447238,0.209942,0.0678721,-3.02472
49701,-2.20678,0.160017,0.17273,-4.96621,3.96362,0.014,0.00105071,-0.00307205,-0.00141023,0.0676009,-0.102057,-0.362722,0.0750506,-0.219432,-0.100731,4.82864,-7.28976,-25.9087,0.20527,0.109729,-3.04193
49801,0.189626,-0.334328,-0.361383,-5.00786,-2.8317,0.014,0.00155576,-0.000767454,-0.000470428,-0.0304324,0.10554,0.00726883,0.111126,-0.0548182,-0.033602,-2.17374,7.53856,0.519202,0.210134,0.0591415,-3.02527
49901,-1.94146,0.155167,0.189544,-5.01946,3.19941,0.014,0.000315572,-0.0078999,0.000459559,0.035215,-0.149296,-0.314576,0.0225409,-0.564278,0.0328257,2.51536,-10.664,-22.4697,0.205765,0.0929917,-3.0415
50001,0.26017,-0.327298,-0.338656,-5.0859,-2.96806,0.014,0.000762131,0.00348817,-0.00317193,-0.0242434,0.0724905,0.015191,0.054438,0.249155,-0.226566,-1.73167,5.1779,1.08507,0.209865,0.0540935,-3.02587
50100,-2.25935,0.106715,0.138465,-5.02548,4.16921,0.014,0.000471117,-0.00650228,-0.000152799,0.0430467,-0.13942,-0.337326,0.0336512,-0.464449,-0.0109142,3.07476,-9.95858,-24.0947,0.205602,0.0964376,-3.04183
50200,0.275777,-0.313171,-0.326464,-5.07151,-3.04122,0.014,0.00101148,0.00202788,-0.00231558,-0.0258894,0.0834516,0.0182036,0.0722484,0.144848,-0.165398,-1.84924,5.96083,1.30026,0.210295,0.0528248,-3.02686
50301,-2.24411,0.139055,0.148437,-5.02275,4.10938,0.014,0.000620182,-0.00527186,-0.00133675,0.0529237,-0.123244,-0.365229,0.0442987,-0.376561,-0.0954818,3.78026,-8.80317,-26.0878,0.205369,0.0928301,-3.04243
50402,0.245348,-0.309128,-0.341249,-5.07602,-2.95251,0.014,0.00208134,0.000128395,-0.00168043,-0.0294589,0.106946,0.00788468,0.148667,0.00917106,-0.12003,-2.1042,7.63897,0.563191,0.210408,0.0469118,-3.02613
50500,-2.19166,0.117836,0.167068,-5.07274,3.99759,0.014,-0.000105217,-0.00786526,-0.000326124,0.0382961,-0.129479,-0.337078,-0.00751548,-0.561804,-0.0232946,2.73544,-9.24851,-24.077,0.20579,0.0899694,-3.04097
50600,0.19235,-0.350989,-0.367662,-5.08075,-2.79403,0.014,0.00183428,0.00232209,-0.00281062,-0.0304913,0.0845129,-0.00937857,0.13102,0.165864,-0.200759,-2.17795,6.03663,-0.669898,0.209921,0.0477495,-3.02537
50701,-1.97265,0.145439,0.19235,-5.09938,3.34954,0.014,0.000751491,-0.00525599,-0.000359813,0.044747,-0.101407,-0.354113,0.053678,-0.375428,-0.0257009,3.19621,-7.24338,-25.2938,0.206093,0.0876222,-3.03999
50800,0.190586,-0.374945,-0.375086,-5.12261,-2.74948,0.014,0.00119219,0.00319438,-0.00168505,-0.0252953,0.113427,-0.00676893,0.0851564,0.22817,-0.120361,-1.80681,8.10193,-0.483495,0.20937,0.0474499,-3.02436
50901,-2.10167,0.165077,0.190586,-5.08426,3.71713,0.014,0.000738689,-0.00565474,5.33707e-05,0.0492218,-0.129806,-0.348358,0.0527635,-0.40391,0.00381219,3.51584,-9.27183,-24.8827,0.205451,0.0875676,-3.04165
51001,0.20155,-0.350507,-0.372715,-5.14699,-2.76371,0.014,0.0013191,0.00123383,-0.0022213,-0.0317588,0.0691579,0.0139706,0.0942217,0.0881304,-0.158664,-2.26849,4.93985,0.9979,0.209571,0.0419888,-3.02781
51102,-2.0006,0.164669,0.20155,-5.14759,3.47095,0.014,0.00113388,-0.00339405,-0.00194741,0.0752784,-0.0421097,-0.359646,0.0809911,-0.242432,-0.139101,5.37703,-3.00783,-25.689,0.205793,0.0853682,-3.04076
51202,0.146805,-0.365057,-0.400603,-5.15491,-2.59638,0.014,-0.000125357,-0.000566514,-4.19547e-05,-0.0297296,0.119471,-0.0159616,-0.00895406,-0.0404653,-0.00299677,-2.12354,8.53367,-1.14011,0.209098,0.0396285,-3.02506
51301,-1.80546,0.132061,0.146805,-5.18842,2.91089,0.014,-0.00010486,-0.00794195,0.000973635,0.0454117,-0.119336,-0.299512,-0.00749001,-0.567282,0.0695454,3.2437,-8.524,-21.3937,0.205527,0.0677133,-3.0403
51401,0.253338,-0.324018,-0.366987,-5.27051,-2.79808,0.014,0.000370833,0.0047404,-0.00298246,-0.0302036,0.0690007,0.017907,0.0264881,0.3386,-0.213033,-2.1574,4.92862,1.27907,0.209462,0.0329352,-3.02624
51501,-2.35334,0.0738512,0.0723943,-5.17887,4.56563,0.014,0.00042326,-0.00733659,0.000107586,0.0431681,-0.152173,-0.331513,0.0302329,-0.524042,0.00768475,3.08343,-10.8695,-23.6795,0.20537,0.0743564,-3.04273
51601,0.262678,-0.328426,-0.352482,-5.22604,-2.88511,0.014,0.000643571,0.00173152,-0.00311382,-0.0307344,0.0755012,0.0212834,0.0459694,0.12368,-0.222416,-2.19531,5.39295,1.52024,0.210235,0.029423,-3.02797
51701,-2.30179,0.105266,0.101969,-5.16962,4.38818,0.014,0.000648294,-0.00581366,-0.00148345,0.0550725,-0.0948461,-0.372274,0.0463067,-0.415261,-0.10596,3.93375,-6.77472,-26.591,0.205721,0.0677862,-3.04204
51802,0.256893,-0.323748,-0.350339,-5.20609,-2.89797,0.014,0.00195172,-0.000116099,-0.00122117,-0.0346184,0.113786,0.00897953,0.139408,-0.00829281,-0.0872266,-2.47274,8.12759,0.641395,0.210267,0.0182563,-3.02559
51901,-2.22352,0.115486,0.138592,-5.19418,4.16845,0.014,0.00135832,-0.00257782,-0.00173119,0.0739787,-0.0524735,-0.369703,0.097023,-0.18413,-0.123657,5.28419,-3.74811,-26.4073,0.206072,0.0618366,-3.04116
52001,0.20714,-0.335291,-0.377514,-5.22316,-2.73491,0.014,0.000446243,0.00273254,-0.00326981,-0.0351019,0.0815355,0.00517799,0.0318745,0.195182,-0.233558,-2.50728,5.82396,0.369856,0.209754,0.0143189,-3.02538
52101,-2.13396,0.15469,0.183503,-5.19798,3.89011,0.014,-2.51565e-05,-0.006382,0.000142538,0.0380458,-0.129086,-0.352131,-0.00179689,-0.455857,0.0101813,2.71756,-9.22046,-25.1522,0.205838,0.0548693,-3.04126
52201,0.239081,-0.346237,-0.363604,-5.24241,-2.81838,0.014,0.000508597,0.00329692,-0.00264251,-0.0364308,0.0818362,0.00758901,0.0363284,0.235494,-0.188751,-2.6022,5.84544,0.542072,0.20955,0.0148113,-3.02514
52301,-2.24198,0.114941,0.131668,-5.19611,4.20999,0.014,0.000162042,-0.00538979,-0.000583668,0.0424939,-0.133434,-0.364674,0.0115744,-0.384985,-0.0416906,3.03528,-9.531,-26.0481,0.20538,0.0578821,-3.04218
52401,0.258133,-0.334781,-0.353242,-5.24605,-2.88055,0.014,0.000564001,0.00231095,-0.0022392,-0.0363834,0.0939481,0.0133623,0.0402858,0.165068,-0.159943,-2.59882,6.71058,0.954451,0.210137,0.0211942,-3.02626
52501,-2.32555,0.108919,0.0928327,-5.1821,4.443,0.014,0.000766292,-0.00373377,-0.00161621,0.0588065,-0.0958706,-0.379387,0.0547351,-0.266698,-0.115444,4.20047,-6.8479,-27.099,0.205567,0.0682501,-3.04241
52601,0.202736,-0.352019,-0.374849,-5.21875,-2.7509,0.014,0.00154436,0.000869849,-0.00106105,-0.0348614,0.124438,-0.00248318,0.110311,0.0621321,-0.0757895,-2.4901,8.88846,-0.17737,0.209886,0.0244708,-3.02499
52701,-2.20566,0.157973,0.154569,-5.18553,4.07259,0.014,-0.000211254,-0.00809957,0.00062777,0.0379653,-0.137448,-0.333525,-0.0150895,-0.57854,0.0448407,2.7118,-9.81773,-23.8232,0.205712,0.0650877,-3.04138
52800,0.197997,-0.358786,-0.377772,-5.22877,-2.73337,0.014,0.00106875,0.00205407,-0.00285404,-0.0368113,0.0644864,-0.00229443,0.0763392,0.146719,-0.20386,-2.62938,4.60617,-0.163888,0.209638,0.0202936,-3.02638
52901,-2.03144,0.139811,0.197997,-5.23499,3.58673,0.014,0.000126162,-0.0063822,-0.000434791,0.0403156,-0.126286,-0.340694,0.00901155,-0.455872,-0.0310565,2.87969,-9.02044,-24.3353,0.205851,0.0568636,-3.04138
53000,0.247012,-0.341387,-0.363054,-5.28971,-2.82168,0.014,7.14573e-05,0.00396715,-0.00240733,-0.0313707,0.106891,0.0129365,0.00510409,0.283368,-0.171952,-2.24077,7.63511,0.924037,0.210099,0.02277,-3.02595
53101,-2.37964,0.0825586,0.0704528,-5.17604,4.57728,0.014,0.000461217,-0.00522094,-0.000555362,0.0522851,-0.126063,-0.364393,0.0329441,-0.372924,-0.0396687,3.73465,-9.00453,-26.0281,0.205392,0.0655596,-3.04271
53201,0.212618,-0.363654,-0.365218,-5.21556,-2.80869,0.014,0.00126207,0.000954086,-0.00235795,-0.033321,0.093737,0.00688184,0.0901482,0.068149,-0.168425,-2.38007,6.6955,0.49156,0.210215,0.0223952,-3.02706
53302,-2.06907,0.169221,0.212618,-5.21715,3.66766,0.014,-0.000124961,-0.00762597,-0.000507128,0.0335508,-0.125252,-0.340123,-0.0089258,-0.544712,-0.0362234,2.39649,-8.94654,-24.2945,0.205991,0.0672903,-3.04096
53401,0.15827,-0.360422,-0.392572,-5.22129,-2.64457,0.014,0.0010545,0.00208572,-0.00282594,-0.0295804,0.0974398,-0.0180286,0.0753216,0.14898,-0.201853,-2.11289,6.95998,-1.28776,0.20935,0.0272261,-3.02564
53501,-1.83038,0.124357,0.15827,-5.24684,2.96296,0.014,0.000488364,-0.0066725,0.000780991,0.0342898,-0.129412,-0.324749,0.0348831,-0.476607,0.0557851,2.44927,-9.24373,-23.1964,0.205888,0.0567102,-3.04079
53601,0.29719,-0.312187,-0.339067,-5.31883,-2.9656,0.014,0.00132214,0.00307836,-0.00225159,-0.0323534,0.0595504,0.0242836,0.0944384,0.219883,-0.160828,-2.31096,4.2536,1.73454,0.209789,0.0140865,-3.02671
53701,-2.22027,0.117738,0.13656,-5.27854,4.18064,0.014,5.24463e-05,-0.00702854,-0.000729637,0.0420626,-0.161781,-0.337068,0.00374616,-0.502039,-0.0521169,3.00447,-11.5558,-24.0763,0.205281,0.0548146,-3.04367
53801,0.294276,-0.3116,-0.344536,-5.34655,-2.93278,0.014,0.00107242,0.00161602,-0.00286758,-0.0387359,0.0975519,0.0219956,0.0766017,0.11543,-0.204827,-2.76685,6.96799,1.57112,0.209898,0.0100846,-3.0268
53901,-2.24218,0.131069,0.130238,-5.26078,4.21857,0.014,0.000151228,-0.00740149,-0.00068594,0.0450507,-0.135372,-0.393445,0.010802,-0.528678,-0.0489957,3.21791,-9.66943,-28.1032,0.205303,0.0439355,-3.04322
54001,0.300338,-0.301102,-0.336105,-5.3247,-2.98337,0.014,0.00188431,0.00066977,-0.00222497,-0.0411281,0.114287,0.0151509,0.134593,0.0478407,-0.158927,-2.93772,8.16333,1.08221,0.21009,-0.00472334,-3.0257
54102,-2.27925,0.126306,0.113989,-5.25432,4.31607,0.014,-0.000289376,-0.011426,0.00233525,0.0400793,-0.154149,-0.279325,-0.0206697,-0.816145,0.166803,2.86281,-11.0107,-19.9518,0.205973,0.0245996,-3.04179
54201,0.348052,-0.261504,-0.309072,-5.31645,-3.14557,0.014,0.00076834,0.00437819,-0.00426684,-0.0373348,0.0548159,0.0398528,0.0548814,0.312728,-0.304774,-2.66677,3.91542,2.84663,0.210543,-0.0162861,-3.02684
54301,-2.25753,0.124007,0.12536,-5.25872,4.24784,0.014,0.000602959,-0.00576682,-0.000708173,0.0368692,-0.132355,-0.359501,0.0430685,-0.411915,-0.0505838,2.63352,-9.45391,-25.6786,0.206695,0.0370542,-3.04145
54401,0.147163,-0.373413,-0.401838,-5.2729,-2.58897,0.014,0.00158571,0.00186888,-0.00152071,-0.0413526,0.115324,-0.00916925,0.113265,0.133492,-0.108622,-2.95376,8.23746,-0.654946,0.209298,-0.0100124,-3.02379
54501,-1.78713,0.124265,0.147163,-5.28904,2.84005,0.014,0.00224875,-0.00125504,-0.000672979,0.0438492,-0.0828307,-0.349019,0.160625,-0.089646,-0.0480699,3.13209,-5.91648,-24.9299,0.2067,0.035242,-3.03971
54602,0.191906,-0.372004,-0.390629,-5.34024,-2.65623,0.014,-0.000251416,0.00136431,0.000930901,-0.0417077,0.106399,-0.0130198,-0.0179583,0.097451,0.0664929,-2.97912,7.59992,-0.929983,0.208681,-0.00606776,-3.02455
54701,-2.0595,0.151174,0.191906,-5.3141,3.69214,0.014,0.00222174,-0.00809483,0.00134693,0.0505596,-0.152326,-0.313183,0.158696,-0.578202,0.096209,3.6114,-10.8804,-22.3702,0.206598,0.0285786,-3.0428
54802,0.235463,-0.359533,-0.372681,-5.36876,-2.76391,0.014,-5.08954e-05,0.00295759,-0.00330129,-0.0402755,0.0561593,0.014483,-0.00363539,0.211256,-0.235807,-2.87682,4.01138,1.0345,0.20933,-0.0156666,-3.02678
54901,-2.22363,0.110471,0.133032,-5.32923,4.20181,0.014,0.00155398,-0.00427497,0.00275221,-0.00337657,-0.100416,-0.184339,0.110999,-0.305355,0.196586,-0.241183,-7.17256,-13.1671,0.202646,0.0103615,-3.03744
55001,0.460662,-0.262719,-0.256877,-5.36788,-3.45874,0.014,0.000172976,0.0113808,-0.00278617,-0.00837267,-0.0235706,0.028037,0.0123555,0.812913,-0.199012,-0.598048,-1.68362,2.00264,0.210819,0.0151884,-3.03128
55102,-2.46035,0.030047,0.0345643,-5.21421,4.79261,0.014,0.00283417,-0.00152603,0.000786266,0.00575719,-0.112463,-0.187954,0.202441,-0.109002,0.0561619,0.411228,-8.03305,-13.4253,0.203401,0.064165,-3.03944
55202,0.344934,-0.270722,-0.289484,-5.23574,-3.26309,0.014,0.000991272,0.00667789,-0.00200479,-0.00909379,-0.046141,-0.00562072,0.0708051,0.476992,-0.1432,-0.649557,-3.29578,-0.40148,0.209542,0.0644749,-3.03261
55301,-2.6263,0.000563637,-0.0294809,-5.111,5.17689,0.014,0.00179309,-0.00537937,0.000935529,0.000283253,-0.106936,-0.179488,0.128078,-0.384241,0.0668235,0.0202323,-7.63825,-12.8206,0.20469,0.076255,-3.03759
55400,0.331329,-0.271974,-0.280582,-5.15955,-3.31651,0.014,0.000904166,0.00462311,-0.0011205,-0.0174744,-0.0466595,0.0048693,0.0645833,0.330222,-0.0800361,-1.24817,-3.33282,0.347807,0.208377,0.0660521,-3.03161
55500,-2.51226,0.0406598,0.0474615,-5.01619,4.71523,0.014,0.00123156,-0.00527007,0.00126167,0.00756807,-0.128249,-0.177669,0.0879689,-0.376434,0.0901196,0.540577,-9.16066,-12.6906,0.203543,0.085026,-3.03865
55602,0.232386,-0.27434,-0.303581,-5.02164,-3.17851,0.014,9.3157e-06,0.00501808,-0.00189379,0.00133617,-0.013434,-0.000783422,0.000665407,0.358434,-0.135271,0.0954408,-0.959572,-0.0559587,0.20936,0.0691649,-3.03127
55701,-2.57671,0.0322758,0.030597,-4.93681,4.81642,0.014,0.000815556,-0.00320467,-0.00010394,0.00384281,-0.115602,-0.194379,0.058254,-0.228905,-0.00742425,0.274486,-8.25729,-13.8842,0.204593,0.0966585,-3.03812
55801,0.228881,-0.289299,-0.292015,-4.95987,-3.24791,0.014,0.00119645,0.00580809,-0.0010752,-0.00989135,-0.00626864,0.0329899,0.0854608,0.414863,-0.0767998,-0.706525,-0.44776,2.35642,0.210323,0.0895287,-3.03024
55900,-2.36462,0.120865,0.146201,-4.89844,4.12279,0.014,0.000425129,-0.00499819,-0.000976745,0.0414354,-0.133951,-0.206473,0.0303663,-0.357013,-0.0697675,2.95967,-9.56791,-14.748,0.202213,0.123729,-3.04267
56001,0.234994,-0.302473,-0.286785,-4.9585,-3.27929,0.014,0.000865131,0.00684679,-0.00376659,-0.0135915,0.0328605,0.0402076,0.061795,0.489056,-0.269042,-0.970819,2.34718,2.87197,0.2109,0.122325,-3.02974
56100,-2.54702,0.0355699,0.0609419,-4.8504,4.63435,0.014,-0.000236459,-0.00530082,0.000361921,0.0466984,-0.0960705,-0.259437,-0.0168899,-0.37863,0.0258515,3.3356,-6.86218,-18.5312,0.202939,0.162981,-3.04049
56200,0.134372,-0.290217,-0.325803,-4.90214,-3.04518,0.014,-0.000787101,0.00570531,-0.00324338,0.0054208,-0.0323588,-0.0414287,-0.0562215,0.407522,-0.23167,0.3872,-2.31134,-2.95919,0.209085,0.150129,-3.03315
56302,-2.09379,0.093313,0.134637,-4.92078,3.31539,0.014,4.14863e-05,-0.00727311,0.000317253,0.0263471,-0.0703675,-0.235828,0.00296331,-0.519508,0.0226609,1.88194,-5.02625,-16.8449,0.205023,0.169136,-3.0379
56400,0.259892,-0.233303,-0.265706,-4.93204,-3.40577,0.014,0.000255678,0.00614611,-0.00186631,-0.00378129,0.0287516,0.00457,0.0182627,0.439008,-0.133308,-0.270092,2.05368,0.326428,0.210576,0.150547,-3.0292
56501,-2.60308,0.023132,0.0318236,-4.86393,4.80906,0.014,0.000628546,-0.0071452,0.000997934,0.0428508,-0.132065,-0.230265,0.0448962,-0.510372,0.071281,3.06077,-9.4332,-16.4475,0.202594,0.180052,-3.04226
